city_a_estimate,city_b_estimate,click_events,comprehension_ease,condition,condition_id,condition_name,confidence_label,confidence_rating,data_trust,display_format,end_time,failed_audio,failed_images,failed_video,hover_events,interaction_log,internal_node_id,participant_id,percent_score,phase,phase1_complete,phase2_complete,predictions_shown,probability_estimate,question_order,response,responses,round,rt,rt_total,skeptical_rating,slider_moved,start_time,stimulus,success,time_elapsed,time_on_viz,timeout,total_interactions,total_questions,total_score,travel_choice,trial_index,trial_type,trust_composite,usability_composite,usability_difficulty,view_history,visualization_literacy_score,visualization_shown
,,,,,,,,,,,,"[]","[]","[]",,,0.0-0.0,6661bf4587f6b99850d9328b,,,,,,,,,,,,,,,,,true,517,,false,,,,,0,preload,,,,,,
,,,,,,,,,,,,,,,,,0.0-1.0,6661bf4587f6b99850d9328b,,,,,,,,0,,,20070,,,,,"
	        <div class=""welcome-screen"">
	            <h1>Air Quality Prediction Study</h1>
	            <p>Welcome! You are about to participate in a research study about how people make decisions using air quality predictions. This study examines how different ways of presenting prediction information affect trust and decision-making. The study will take approximately 15 minutes.</p>
	            <div class=""study-info"">
	                <h3>What you'll do:</h3>
	                <ul>
	                    <li>Complete a brief assessment of visualization understanding</li>
	                    <li>Make predictions about air quality in two cities</li>
	                    <li>Answer questions about your confidence and trust</li>
						<li>Report basic demographic data</li>
	                </ul>
	            </div>
	        </div>
	    ",,20589,,,,,,,1,html-button-response,,,,,,
,,,,,,,,,,,,,,,,,0.0-2.0,6661bf4587f6b99850d9328b,,,,,,,,,,,2153,,,,,,true,23754,,,,,,,2,fullscreen,,,,,,
,,,,,,,,,,,,,,,,,0.0-3.0,6661bf4587f6b99850d9328b,,,,,,,,"{""participant_id"":""6661bf4587f6b99850d9328b""}",,,5753,,,,,,,29510,,,,,,,3,survey-text,,,,,,
,,,,,,,,,,,,,,,,,0.0-4.0,6661bf4587f6b99850d9328b,,,,,,,,0,,,21559,,,,,"
	        <div class=""consent-form"">
	            <h2>Consent Form</h2>
	            <div class=""consent-header"">
	                <p><strong>Principal Investigator:</strong> Dr. Cindy Xiong Bearfield, Assistant Professor</p>
	                <p><strong>Study Title:</strong> Trusting What We See: Effect of Interactivity in Visual Data Analysis</p>
	                <p><strong>Supported By:</strong> Georgia Institute of Technology</p>
	            </div>
	            
	            <div class=""consent-details"">
	                <h3>WHAT IS THIS FORM?</h3>
	                <p>This form is called a Consent Form. It will give you information about the study so you can make an informed decision about participation in this research. We encourage you to take some time to think this over and ask questions now and at any other time. If you decide to participate, you will be asked to sign this form and you will be given a copy for your records.</p>

	                <h3>WHAT ARE SOME OF THE IMPORTANT ASPECTS OF THIS RESEARCH STUDY THAT I SHOULD BE AWARE OF?</h3>
	                <ul>
	                    <li>Whether or not you take part is up to you.</li>
	                    <li>You can choose not to take part.</li>
	                    <li>You can agree to take part and later change your mind.</li>
	                    <li>Your decision will not be held against you.</li>
	                </ul>

	                <h3>WHY ARE WE DOING THIS RESEARCH STUDY?</h3>
	                <p>The purpose of our study is to explore the visualization design space so we can understand how people perceive, interpret, and make decisions from visualizations. The results from this study can help us design visualizations and visualization guidelines to help people better communicate and understand data.</p>

	                <h3>WHO CAN PARTICIPATE IN THIS RESEARCH STUDY?</h3>
	                <p>Participants in this study must be at least 18 years of age or older and have general familiarity with using web-based systems. Participants currently outside of the U.S. cannot participate in this study (e.g. in the European Union or China).</p>

	                <h3>WHAT COMPENSATION I WILL RECEIVE?</h3>
	                <p>You will receive payment through Prolific worth $12/hour for participating in this study. We expect this study to take less than 20 minutes. Your participation is entirely voluntary. You are free to withdraw at any time, and if you do, you will receive partial payment for your time.</p>

	                <h3>HOW MANY PEOPLE WILL PARTICIPATE?</h3>
	                <p>We expect about 200 people will be in this research study.</p>

	                <h3>WHAT WILL I BE ASKED TO DO AND HOW MUCH TIME WILL IT TAKE?</h3>
	                <p>We will show you several data visualizations or components of a visualization and ask you to perform a visual task with the visualization on a computer screen, such as counting, searching, recognizing, memorizing, or describing the information presented to you. We may also ask you to fill out questionnaires concerning your thoughts regarding the visualization you saw. We expect that you will be in this research study to take between 15 and 60 minutes. We expect this study to be a one-off session and will not contact you regarding the study itself in the future.</p>

	                <h3>WILL BEING IN THIS RESEARCH STUDY HELP ME IN ANY WAY?</h3>
	                <p>You are not likely to have any direct benefit from being in this research study. The potential benefits to you from participation may include learning about how data visualization research is conducted, and you may learn about issues of current interest in data visualization and psychology.</p>

	                <h3>WHAT ARE MY RISKS OF BEING IN THIS RESEARCH STUDY?</h3>
	                <p>Your participation in this study does not involve any risks other than what you would encounter in daily life. In particular, you may experience fatigue or boredom, however, you may take breaks between tasks. The effects of participating should be comparable to those you would experience from viewing a computer monitor and using a keyboard. You may withdraw at any time.</p>

	                <h3>HOW WILL MY PERSONAL INFORMATION BE PROTECTED?</h3>
	                <p>We will comply with any applicable laws and regulations regarding confidentiality. To make sure that this research is being carried out in the proper way, the Georgia Institute of Technology IRB may review study records. The Office of Human Research Protections may also look at study records.</p>
	                <p>Efforts will be made to limit the use and disclosure of your personal information, including research study records, to people who need to review this information. We cannot promise complete secrecy. Organizations that may inspect and copy your information include the IRB and other representatives of this institution. Please be notified that our data privacy policy is based on U.S. regulations. Participants who are out of the U.S. might be excluded due to different data privacy requirements.</p>
	                <p><strong>Data Sharing:</strong> De-identified data from this study will be shared among the GATech research team, as well as the research community at large to advance science and health. We will remove or code any personal information that could identify you before files are shared with other researchers to ensure that, by current scientific standards and known methods, no one will be able to identify you from the information we share. Despite these measures, we cannot guarantee the anonymity of your personal data.</p>

	                <h3>WILL I BE GIVEN ANY MONEY OR OTHER COMPENSATION FOR BEING IN THIS RESEARCH STUDY?</h3>
	                <p>If you agree to take part in this research study, we will provide compensation. You will be paid in accordance with the stated policies of Amazon Mechanical Turk and/or Prolific.com. Payment will be made upon completion and acceptance of tasks that you have agreed to complete and you will be paid via Mechanical Turk or Prolific.com. If you choose to withdraw from the study, you will not be compensated for your participation.</p>

	                <h3>WHAT ELSE DO I NEED TO KNOW?</h3>
	                <p>We might be using attention check questions in our surveys. If you miss 2 or more attention check questions, your HIT will not be accepted and you will not be compensated.</p>

	                <h3>WHO CAN I TALK TO IF I HAVE QUESTIONS?</h3>
	                <p>If you have any questions about the content of this research project, you may contact Dr. Cindy Xiong Bearfield at cxiong@gatech.edu, or contact Songwen Hu at shu343@gatech.edu. If you have any questions about your rights as a research subject, you may also contact Georgia Institute of Technology Office of Research Integrity Assurance at IRB@gatech.edu.</p>

	                <h3>WHAT HAPPENS IF I SAY YES, BUT I CHANGE MY MIND LATER?</h3>
	                <p>You can decide not to participate in this research or you can start and then decide to leave the research at any time and it will not be held against you. To do so, simply exit the experiment. Any data already collected will not be saved.</p>

	                <p><strong>By clicking ""I agree"" below you are indicating that you are at least 18 years old, currently in the U.S., have read this consent form, and agree to participate in this research study. Please print a copy of this page for your records.</strong></p>
	            </div>
	        </div>
	    ",,51072,,,,,,,4,html-button-response,,,,,,
,,,,,,,,,,,,,,,,,0.0-5.0,6661bf4587f6b99850d9328b,,,,,,,,0,,,6818,,,,,"
	        <div class=""vis-literacy-intro"">
	            <h2>Visualization Assessment</h2>
	            <p>Before we begin the main study, we'd like to assess your ability to read and interpret data visualizations.</p>
	            
	            <div class=""assessment-info"">
	                <h3>What you'll do:</h3>
	                <ul>
	                    <li>View 12 different data visualizations (charts and graphs)</li>
	                    <li>Answer questions about what each visualization shows</li>
	                    <li>Take your time to examine each chart carefully</li>
	                </ul>
	                
	                <p><strong>This assessment will take approximately 5-10 minutes.</strong></p>
	                <p>There are no right or wrong interpretations - we're interested in how you read visualizations.</p>
	            </div>
	        </div>
	    ",,57891,,,,,,,5,html-button-response,,,,,,
,,,,,condition_1_baseline,Baseline,,,,,,,,,,,0.0-6.0,6661bf4587f6b99850d9328b,67,,,,,,,,"[{""question_id"":""minivlat_1"",""question_type"":""treemap"",""question_text"":""eBay is nested in the Software category."",""response"":1,""correct_answer"":1,""is_correct"":true,""rt"":14581.200000047684},{""question_id"":""minivlat_2"",""question_type"":""stacked_100_bar"",""question_text"":""Which country has the lowest proportion of Gold medals?"",""response"":2,""correct_answer"":1,""is_correct"":false,""rt"":12504.5},{""question_id"":""minivlat_3"",""question_type"":""histogram"",""question_text"":""What distance have customers traveled the most?"",""response"":1,""correct_answer"":1,""is_correct"":true,""rt"":32939.5},{""question_id"":""minivlat_4"",""question_type"":""choropleth"",""question_text"":""In 2020, the unemployment rate for Washington (WA) was higher than that of Wisconsin (WI)."",""response"":0,""correct_answer"":0,""is_correct"":true,""rt"":38961.09999996424},{""question_id"":""minivlat_5"",""question_type"":""pie_chart"",""question_text"":""What is the approximate global smartphone market share of Samsung?"",""response"":0,""correct_answer"":0,""is_correct"":true,""rt"":42254.19999998808},{""question_id"":""minivlat_6"",""question_type"":""bubble_chart"",""question_text"":""Which has the largest number of metro stations?"",""response"":1,""correct_answer"":1,""is_correct"":true,""rt"":50998.80000001192},{""question_id"":""minivlat_7"",""question_type"":""stacked_bar"",""question_text"":""What is the cost of peanuts in Seoul?"",""response"":4,""correct_answer"":1,""is_correct"":false,""rt"":66624.30000001192},{""question_id"":""minivlat_8"",""question_type"":""line_chart"",""question_text"":""What was the price of a barrel of oil in February 2020?"",""response"":0,""correct_answer"":0,""is_correct"":true,""rt"":27715.69999998808},{""question_id"":""minivlat_9"",""question_type"":""bar_chart"",""question_text"":""What is the average internet speed in Japan?"",""response"":1,""correct_answer"":1,""is_correct"":true,""rt"":31858.5},{""question_id"":""minivlat_10"",""question_type"":""area_chart"",""question_text"":""What was the average price of a pound of coffee in October 2019?"",""response"":2,""correct_answer"":0,""is_correct"":false,""rt"":59312.69999998808},{""question_id"":""minivlat_11"",""question_type"":""stacked_area"",""question_text"":""What was the ratio of girls named \""Isla\"" to girls named \""Amelia\"" in 2012 in the UK?"",""response"":3,""correct_answer"":1,""is_correct"":false,""rt"":54610.10000002384},{""question_id"":""minivlat_12"",""question_type"":""scatter_plot"",""question_text"":""There is a negative relationship between the height and weight of the 85 males."",""response"":1,""correct_answer"":1,""is_correct"":true,""rt"":56293.799999952316}]",,,488654.39999997616,,,,,,546547,,,,12,8,,6,vis-literacy,,,,,,
,,,,,,,,,,,,,,,,,0.0-7.0,6661bf4587f6b99850d9328b,,,,,,,,,,,10551,,,,,,,557098,,,,,,,7,instructions,,,,"[{""page_index"":0,""viewing_time"":10551}]",,
82,90,,,,condition_0_historical,Historical Only,Somewhat Uncertain,3,,historical_only,,,,,,"[{""type"":""chart_enter"",""data"":{""timestamp"":528.3000000119209},""timestamp"":528.3999999761581},{""type"":""chart_hover"",""data"":{""x"":1012,""y"":499,""timestamp"":528.5},""timestamp"":528.5},{""type"":""chart_hover"",""data"":{""x"":1012,""y"":508,""timestamp"":544.1000000238419},""timestamp"":544.1000000238419},{""type"":""chart_hover"",""data"":{""x"":1013,""y"":513,""timestamp"":560.6999999880791},""timestamp"":560.6999999880791},{""type"":""chart_hover"",""data"":{""x"":1014,""y"":519,""timestamp"":577.6000000238419},""timestamp"":577.6000000238419},{""type"":""chart_hover"",""data"":{""x"":1016,""y"":524,""timestamp"":594.1999999880791},""timestamp"":594.1999999880791},{""type"":""chart_hover"",""data"":{""x"":1017,""y"":527,""timestamp"":611.1000000238419},""timestamp"":611.1000000238419},{""type"":""chart_hover"",""data"":{""x"":1017,""y"":532,""timestamp"":629.3999999761581},""timestamp"":629.3999999761581},{""type"":""chart_hover"",""data"":{""x"":1017,""y"":535,""timestamp"":644.3000000119209},""timestamp"":644.3000000119209},{""type"":""chart_hover"",""data"":{""x"":1018,""y"":540,""timestamp"":661},""timestamp"":661},{""type"":""chart_hover"",""data"":{""x"":1018,""y"":543,""timestamp"":677.6999999880791},""timestamp"":677.6999999880791},{""type"":""chart_hover"",""data"":{""x"":1019,""y"":547,""timestamp"":694.3999999761581},""timestamp"":694.3999999761581},{""type"":""chart_hover"",""data"":{""x"":1019,""y"":552,""timestamp"":711.3999999761581},""timestamp"":711.3999999761581},{""type"":""chart_hover"",""data"":{""x"":1019,""y"":565,""timestamp"":753.3000000119209},""timestamp"":753.3000000119209},{""type"":""chart_hover"",""data"":{""x"":1019,""y"":567,""timestamp"":764.6999999880791},""timestamp"":764.6999999880791},{""type"":""chart_hover"",""data"":{""x"":1019,""y"":572,""timestamp"":777.3999999761581},""timestamp"":777.3999999761581},{""type"":""chart_hover"",""data"":{""x"":1024,""y"":591,""timestamp"":839.1000000238419},""timestamp"":839.1000000238419},{""type"":""chart_hover"",""data"":{""x"":1024,""y"":593,""timestamp"":846.3000000119209},""timestamp"":846.3000000119209},{""type"":""chart_hover"",""data"":{""x"":1025,""y"":595,""timestamp"":860.8000000119209},""timestamp"":860.8000000119209},{""type"":""chart_leave"",""data"":{""timestamp"":877.3999999761581},""timestamp"":877.3999999761581},{""type"":""chart_enter"",""data"":{""timestamp"":9577.199999988079},""timestamp"":9577.199999988079},{""type"":""chart_hover"",""data"":{""x"":1031,""y"":598,""timestamp"":9577.199999988079},""timestamp"":9577.199999988079},{""type"":""chart_hover"",""data"":{""x"":1019,""y"":588,""timestamp"":9594.5},""timestamp"":9594.5},{""type"":""chart_hover"",""data"":{""x"":1016,""y"":585,""timestamp"":9611.100000023842},""timestamp"":9611.100000023842},{""type"":""chart_hover"",""data"":{""x"":1011,""y"":581,""timestamp"":9628.199999988079},""timestamp"":9628.199999988079},{""type"":""chart_hover"",""data"":{""x"":1006,""y"":576,""timestamp"":9644.600000023842},""timestamp"":9644.600000023842},{""type"":""chart_hover"",""data"":{""x"":1003,""y"":572,""timestamp"":9661.899999976158},""timestamp"":9661.899999976158},{""type"":""chart_hover"",""data"":{""x"":1000,""y"":569,""timestamp"":9677.899999976158},""timestamp"":9677.899999976158},{""type"":""chart_hover"",""data"":{""x"":996,""y"":564,""timestamp"":9694.5},""timestamp"":9694.5},{""type"":""chart_hover"",""data"":{""x"":994,""y"":561,""timestamp"":9711.399999976158},""timestamp"":9711.399999976158},{""type"":""chart_hover"",""data"":{""x"":991,""y"":555,""timestamp"":9727.899999976158},""timestamp"":9727.899999976158},{""type"":""chart_hover"",""data"":{""x"":989,""y"":552,""timestamp"":9744.800000011921},""timestamp"":9744.800000011921},{""type"":""chart_hover"",""data"":{""x"":985,""y"":546,""timestamp"":9761.600000023842},""timestamp"":9761.600000023842},{""type"":""chart_hover"",""data"":{""x"":983,""y"":541,""timestamp"":9778},""timestamp"":9778.100000023842},{""type"":""chart_hover"",""data"":{""x"":982,""y"":536,""timestamp"":9794.600000023842},""timestamp"":9794.600000023842},{""type"":""chart_hover"",""data"":{""x"":981,""y"":533,""timestamp"":9811.5},""timestamp"":9811.5},{""type"":""chart_hover"",""data"":{""x"":981,""y"":528,""timestamp"":9828},""timestamp"":9828},{""type"":""chart_hover"",""data"":{""x"":981,""y"":525,""timestamp"":9844.699999988079},""timestamp"":9844.699999988079},{""type"":""chart_hover"",""data"":{""x"":981,""y"":521,""timestamp"":9861.600000023842},""timestamp"":9861.600000023842},{""type"":""chart_hover"",""data"":{""x"":981,""y"":517,""timestamp"":9878.399999976158},""timestamp"":9878.399999976158},{""type"":""chart_hover"",""data"":{""x"":979,""y"":511,""timestamp"":9895.699999988079},""timestamp"":9895.699999988079},{""type"":""chart_hover"",""data"":{""x"":979,""y"":508,""timestamp"":9911.199999988079},""timestamp"":9911.300000011921},{""type"":""chart_hover"",""data"":{""x"":979,""y"":504,""timestamp"":9927.300000011921},""timestamp"":9927.300000011921},{""type"":""chart_hover"",""data"":{""x"":979,""y"":500,""timestamp"":9944},""timestamp"":9944},{""type"":""chart_hover"",""data"":{""x"":979,""y"":495,""timestamp"":9960.899999976158},""timestamp"":9960.899999976158},{""type"":""chart_hover"",""data"":{""x"":979,""y"":494,""timestamp"":9977.5},""timestamp"":9977.5},{""type"":""chart_hover"",""data"":{""x"":979,""y"":492,""timestamp"":9994.100000023842},""timestamp"":9994.100000023842},{""type"":""chart_hover"",""data"":{""x"":980,""y"":489,""timestamp"":10010.899999976158},""timestamp"":10010.899999976158},{""type"":""chart_hover"",""data"":{""x"":980,""y"":487,""timestamp"":10027.699999988079},""timestamp"":10027.699999988079},{""type"":""chart_hover"",""data"":{""x"":980,""y"":485,""timestamp"":10051.199999988079},""timestamp"":10051.199999988079},{""type"":""chart_hover"",""data"":{""x"":980,""y"":484,""timestamp"":10093.800000011921},""timestamp"":10093.899999976158},{""type"":""chart_hover"",""data"":{""x"":980,""y"":483,""timestamp"":10110.5},""timestamp"":10110.5},{""type"":""chart_hover"",""data"":{""x"":980,""y"":482,""timestamp"":10138},""timestamp"":10138},{""type"":""chart_hover"",""data"":{""x"":981,""y"":482,""timestamp"":10287.600000023842},""timestamp"":10287.600000023842},{""type"":""chart_hover"",""data"":{""x"":982,""y"":481,""timestamp"":10341.100000023842},""timestamp"":10341.100000023842},{""type"":""chart_hover"",""data"":{""x"":983,""y"":480,""timestamp"":10377.699999988079},""timestamp"":10377.699999988079},{""type"":""chart_hover"",""data"":{""x"":984,""y"":480,""timestamp"":10394.899999976158},""timestamp"":10394.899999976158},{""type"":""chart_hover"",""data"":{""x"":986,""y"":478,""timestamp"":10414.100000023842},""timestamp"":10414.100000023842},{""type"":""chart_hover"",""data"":{""x"":987,""y"":478,""timestamp"":10428.300000011921},""timestamp"":10428.300000011921},{""type"":""chart_hover"",""data"":{""x"":988,""y"":477,""timestamp"":10444},""timestamp"":10444},{""type"":""chart_hover"",""data"":{""x"":989,""y"":476,""timestamp"":10460.800000011921},""timestamp"":10460.800000011921},{""type"":""chart_hover"",""data"":{""x"":990,""y"":476,""timestamp"":10480.199999988079},""timestamp"":10480.199999988079},{""type"":""chart_hover"",""data"":{""x"":990,""y"":475,""timestamp"":10494},""timestamp"":10494},{""type"":""chart_hover"",""data"":{""x"":990,""y"":474,""timestamp"":10510.600000023842},""timestamp"":10510.600000023842},{""type"":""chart_hover"",""data"":{""x"":992,""y"":474,""timestamp"":10527.199999988079},""timestamp"":10527.199999988079},{""type"":""chart_hover"",""data"":{""x"":992,""y"":473,""timestamp"":10543.899999976158},""timestamp"":10543.899999976158},{""type"":""chart_hover"",""data"":{""x"":994,""y"":472,""timestamp"":10560.600000023842},""timestamp"":10560.600000023842},{""type"":""chart_hover"",""data"":{""x"":995,""y"":472,""timestamp"":10585.199999988079},""timestamp"":10585.199999988079},{""type"":""chart_hover"",""data"":{""x"":996,""y"":470,""timestamp"":10627},""timestamp"":10627},{""type"":""chart_hover"",""data"":{""x"":996,""y"":471,""timestamp"":15067.800000011921},""timestamp"":15067.800000011921},{""type"":""chart_hover"",""data"":{""x"":995,""y"":471,""timestamp"":15081.399999976158},""timestamp"":15081.399999976158},{""type"":""chart_hover"",""data"":{""x"":995,""y"":472,""timestamp"":15094.199999988079},""timestamp"":15094.199999988079},{""type"":""chart_hover"",""data"":{""x"":993,""y"":474,""timestamp"":15110.399999976158},""timestamp"":15110.399999976158},{""type"":""chart_hover"",""data"":{""x"":992,""y"":475,""timestamp"":15127},""timestamp"":15127},{""type"":""chart_hover"",""data"":{""x"":991,""y"":476,""timestamp"":15143.899999976158},""timestamp"":15143.899999976158},{""type"":""chart_hover"",""data"":{""x"":989,""y"":478,""timestamp"":15160.600000023842},""timestamp"":15160.600000023842},{""type"":""chart_hover"",""data"":{""x"":988,""y"":480,""timestamp"":15177.300000011921},""timestamp"":15177.300000011921},{""type"":""chart_hover"",""data"":{""x"":988,""y"":481,""timestamp"":15193.899999976158},""timestamp"":15193.899999976158},{""type"":""chart_hover"",""data"":{""x"":988,""y"":482,""timestamp"":15215.699999988079},""timestamp"":15215.699999988079},{""type"":""chart_hover"",""data"":{""x"":988,""y"":483,""timestamp"":15231.399999976158},""timestamp"":15231.399999976158},{""type"":""chart_hover"",""data"":{""x"":987,""y"":483,""timestamp"":15243.699999988079},""timestamp"":15243.699999988079},{""type"":""chart_hover"",""data"":{""x"":986,""y"":483,""timestamp"":15263.100000023842},""timestamp"":15263.100000023842},{""type"":""chart_hover"",""data"":{""x"":986,""y"":484,""timestamp"":15277.300000011921},""timestamp"":15277.300000011921},{""type"":""chart_hover"",""data"":{""x"":986,""y"":483,""timestamp"":17687.19999998808},""timestamp"":17687.19999998808},{""type"":""chart_hover"",""data"":{""x"":985,""y"":483,""timestamp"":22881.30000001192},""timestamp"":22881.30000001192},{""type"":""chart_hover"",""data"":{""x"":982,""y"":483,""timestamp"":22894.19999998808},""timestamp"":22894.19999998808},{""type"":""chart_hover"",""data"":{""x"":980,""y"":483,""timestamp"":22910.600000023842},""timestamp"":22910.600000023842},{""type"":""chart_hover"",""data"":{""x"":977,""y"":484,""timestamp"":22927.600000023842},""timestamp"":22927.600000023842},{""type"":""chart_hover"",""data"":{""x"":967,""y"":488,""timestamp"":22944.100000023842},""timestamp"":22944.100000023842},{""type"":""chart_hover"",""data"":{""x"":952,""y"":496,""timestamp"":22960.80000001192},""timestamp"":22960.80000001192},{""type"":""chart_hover"",""data"":{""x"":926,""y"":506,""timestamp"":22977.399999976158},""timestamp"":22977.399999976158},{""type"":""chart_hover"",""data"":{""x"":893,""y"":512,""timestamp"":22994.30000001192},""timestamp"":22994.30000001192},{""type"":""chart_hover"",""data"":{""x"":889,""y"":512,""timestamp"":23010.899999976158},""timestamp"":23010.899999976158},{""type"":""chart_hover"",""data"":{""x"":884,""y"":511,""timestamp"":23027.399999976158},""timestamp"":23027.399999976158},{""type"":""chart_hover"",""data"":{""x"":880,""y"":509,""timestamp"":23043.80000001192},""timestamp"":23043.80000001192},{""type"":""chart_hover"",""data"":{""x"":880,""y"":508,""timestamp"":23093.899999976158},""timestamp"":23093.899999976158},{""type"":""chart_hover"",""data"":{""x"":878,""y"":507,""timestamp"":23110.80000001192},""timestamp"":23110.80000001192},{""type"":""chart_hover"",""data"":{""x"":877,""y"":507,""timestamp"":23127.399999976158},""timestamp"":23127.399999976158},{""type"":""chart_hover"",""data"":{""x"":876,""y"":505,""timestamp"":23144.19999998808},""timestamp"":23144.19999998808},{""type"":""chart_hover"",""data"":{""x"":875,""y"":500,""timestamp"":23160.600000023842},""timestamp"":23160.600000023842},{""type"":""chart_hover"",""data"":{""x"":875,""y"":494,""timestamp"":23177.69999998808},""timestamp"":23177.69999998808},{""type"":""chart_hover"",""data"":{""x"":875,""y"":481,""timestamp"":23194.100000023842},""timestamp"":23194.100000023842},{""type"":""chart_hover"",""data"":{""x"":875,""y"":460,""timestamp"":23210.600000023842},""timestamp"":23210.600000023842},{""type"":""chart_hover"",""data"":{""x"":875,""y"":445,""timestamp"":23227.5},""timestamp"":23227.5},{""type"":""chart_hover"",""data"":{""x"":875,""y"":436,""timestamp"":23244.100000023842},""timestamp"":23244.100000023842},{""type"":""chart_hover"",""data"":{""x"":875,""y"":421,""timestamp"":23260.80000001192},""timestamp"":23260.80000001192},{""type"":""chart_hover"",""data"":{""x"":876,""y"":407,""timestamp"":23277.19999998808},""timestamp"":23277.19999998808},{""type"":""chart_hover"",""data"":{""x"":876,""y"":399,""timestamp"":23293.69999998808},""timestamp"":23293.69999998808},{""type"":""chart_hover"",""data"":{""x"":876,""y"":392,""timestamp"":23310.899999976158},""timestamp"":23310.899999976158},{""type"":""chart_hover"",""data"":{""x"":877,""y"":386,""timestamp"":23327.69999998808},""timestamp"":23327.69999998808},{""type"":""chart_hover"",""data"":{""x"":877,""y"":381,""timestamp"":23343.899999976158},""timestamp"":23343.899999976158},{""type"":""chart_hover"",""data"":{""x"":877,""y"":378,""timestamp"":23360.69999998808},""timestamp"":23360.69999998808},{""type"":""chart_hover"",""data"":{""x"":877,""y"":374,""timestamp"":23377.399999976158},""timestamp"":23377.399999976158},{""type"":""chart_hover"",""data"":{""x"":877,""y"":370,""timestamp"":23394.100000023842},""timestamp"":23394.100000023842},{""type"":""chart_hover"",""data"":{""x"":877,""y"":366,""timestamp"":23411.100000023842},""timestamp"":23411.100000023842},{""type"":""chart_hover"",""data"":{""x"":877,""y"":363,""timestamp"":23427.5},""timestamp"":23427.5},{""type"":""chart_hover"",""data"":{""x"":878,""y"":355,""timestamp"":23444},""timestamp"":23444},{""type"":""chart_hover"",""data"":{""x"":879,""y"":346,""timestamp"":23460.69999998808},""timestamp"":23460.69999998808},{""type"":""chart_hover"",""data"":{""x"":879,""y"":344,""timestamp"":23477.600000023842},""timestamp"":23477.600000023842},{""type"":""chart_hover"",""data"":{""x"":879,""y"":339,""timestamp"":23494.19999998808},""timestamp"":23494.19999998808},{""type"":""chart_hover"",""data"":{""x"":879,""y"":333,""timestamp"":23510.399999976158},""timestamp"":23510.399999976158},{""type"":""chart_hover"",""data"":{""x"":879,""y"":330,""timestamp"":23527.19999998808},""timestamp"":23527.19999998808},{""type"":""chart_hover"",""data"":{""x"":879,""y"":326,""timestamp"":23543.69999998808},""timestamp"":23543.69999998808},{""type"":""chart_hover"",""data"":{""x"":879,""y"":323,""timestamp"":23560.80000001192},""timestamp"":23560.80000001192},{""type"":""chart_hover"",""data"":{""x"":879,""y"":319,""timestamp"":23577.30000001192},""timestamp"":23577.30000001192},{""type"":""chart_hover"",""data"":{""x"":879,""y"":314,""timestamp"":23594},""timestamp"":23594},{""type"":""chart_hover"",""data"":{""x"":879,""y"":307,""timestamp"":23610.399999976158},""timestamp"":23610.399999976158},{""type"":""chart_hover"",""data"":{""x"":879,""y"":304,""timestamp"":23627.5},""timestamp"":23627.5},{""type"":""chart_hover"",""data"":{""x"":879,""y"":302,""timestamp"":23644.100000023842},""timestamp"":23644.100000023842},{""type"":""chart_hover"",""data"":{""x"":879,""y"":301,""timestamp"":23660.80000001192},""timestamp"":23660.80000001192},{""type"":""chart_hover"",""data"":{""x"":879,""y"":300,""timestamp"":23825.80000001192},""timestamp"":23825.80000001192},{""type"":""chart_hover"",""data"":{""x"":879,""y"":299,""timestamp"":23902.19999998808},""timestamp"":23902.19999998808},{""type"":""chart_hover"",""data"":{""x"":879,""y"":298,""timestamp"":23943.80000001192},""timestamp"":23943.80000001192},{""type"":""chart_hover"",""data"":{""x"":879,""y"":297,""timestamp"":23960.69999998808},""timestamp"":23960.69999998808},{""type"":""chart_hover"",""data"":{""x"":879,""y"":296,""timestamp"":23977.80000001192},""timestamp"":23977.80000001192},{""type"":""chart_hover"",""data"":{""x"":879,""y"":295,""timestamp"":24001.80000001192},""timestamp"":24001.80000001192},{""type"":""chart_hover"",""data"":{""x"":879,""y"":294,""timestamp"":24054.399999976158},""timestamp"":24054.399999976158},{""type"":""chart_hover"",""data"":{""x"":879,""y"":293,""timestamp"":24074.100000023842},""timestamp"":24074.100000023842},{""type"":""chart_hover"",""data"":{""x"":879,""y"":292,""timestamp"":24127.19999998808},""timestamp"":24127.19999998808},{""type"":""chart_hover"",""data"":{""x"":879,""y"":293,""timestamp"":24365.80000001192},""timestamp"":24365.80000001192},{""type"":""chart_hover"",""data"":{""x"":879,""y"":295,""timestamp"":24377.30000001192},""timestamp"":24377.30000001192},{""type"":""chart_hover"",""data"":{""x"":878,""y"":300,""timestamp"":24392.30000001192},""timestamp"":24392.30000001192},{""type"":""chart_leave"",""data"":{""timestamp"":25790.399999976158},""timestamp"":25790.399999976158},{""type"":""chart_enter"",""data"":{""timestamp"":26960.899999976158},""timestamp"":26960.899999976158},{""type"":""chart_hover"",""data"":{""x"":882,""y"":591,""timestamp"":26960.899999976158},""timestamp"":26960.899999976158},{""type"":""chart_hover"",""data"":{""x"":884,""y"":574,""timestamp"":26977.600000023842},""timestamp"":26977.600000023842},{""type"":""chart_hover"",""data"":{""x"":887,""y"":550,""timestamp"":26994.19999998808},""timestamp"":26994.19999998808},{""type"":""chart_hover"",""data"":{""x"":890,""y"":535,""timestamp"":27010.899999976158},""timestamp"":27010.899999976158},{""type"":""chart_hover"",""data"":{""x"":894,""y"":516,""timestamp"":27027.600000023842},""timestamp"":27027.600000023842},{""type"":""chart_hover"",""data"":{""x"":894,""y"":509,""timestamp"":27044},""timestamp"":27044},{""type"":""chart_hover"",""data"":{""x"":895,""y"":498,""timestamp"":27061.100000023842},""timestamp"":27061.100000023842},{""type"":""chart_hover"",""data"":{""x"":897,""y"":481,""timestamp"":27078},""timestamp"":27078},{""type"":""chart_hover"",""data"":{""x"":898,""y"":469,""timestamp"":27094.30000001192},""timestamp"":27094.30000001192},{""type"":""chart_hover"",""data"":{""x"":899,""y"":456,""timestamp"":27111},""timestamp"":27111},{""type"":""chart_hover"",""data"":{""x"":900,""y"":443,""timestamp"":27127.80000001192},""timestamp"":27127.80000001192},{""type"":""chart_hover"",""data"":{""x"":900,""y"":432,""timestamp"":27144.69999998808},""timestamp"":27144.69999998808},{""type"":""chart_hover"",""data"":{""x"":900,""y"":421,""timestamp"":27161.100000023842},""timestamp"":27161.100000023842},{""type"":""chart_hover"",""data"":{""x"":900,""y"":419,""timestamp"":27178.30000001192},""timestamp"":27178.30000001192},{""type"":""chart_hover"",""data"":{""x"":900,""y"":413,""timestamp"":27194.600000023842},""timestamp"":27194.600000023842},{""type"":""chart_hover"",""data"":{""x"":900,""y"":408,""timestamp"":27211.100000023842},""timestamp"":27211.100000023842},{""type"":""chart_hover"",""data"":{""x"":902,""y"":402,""timestamp"":27227.899999976158},""timestamp"":27227.899999976158},{""type"":""chart_hover"",""data"":{""x"":902,""y"":398,""timestamp"":27245},""timestamp"":27245},{""type"":""chart_hover"",""data"":{""x"":902,""y"":396,""timestamp"":27260.899999976158},""timestamp"":27260.899999976158},{""type"":""chart_hover"",""data"":{""x"":903,""y"":393,""timestamp"":27277.5},""timestamp"":27277.5},{""type"":""chart_hover"",""data"":{""x"":904,""y"":392,""timestamp"":27294.100000023842},""timestamp"":27294.100000023842},{""type"":""chart_hover"",""data"":{""x"":907,""y"":389,""timestamp"":27310.80000001192},""timestamp"":27310.80000001192},{""type"":""chart_hover"",""data"":{""x"":909,""y"":385,""timestamp"":27327.69999998808},""timestamp"":27327.69999998808},{""type"":""chart_hover"",""data"":{""x"":913,""y"":379,""timestamp"":27344.19999998808},""timestamp"":27344.19999998808},{""type"":""chart_hover"",""data"":{""x"":919,""y"":371,""timestamp"":27360.69999998808},""timestamp"":27360.69999998808},{""type"":""chart_hover"",""data"":{""x"":921,""y"":367,""timestamp"":27377.399999976158},""timestamp"":27377.399999976158},{""type"":""chart_hover"",""data"":{""x"":926,""y"":363,""timestamp"":27394.100000023842},""timestamp"":27394.100000023842},{""type"":""chart_hover"",""data"":{""x"":926,""y"":362,""timestamp"":27411.899999976158},""timestamp"":27411.899999976158},{""type"":""chart_hover"",""data"":{""x"":927,""y"":362,""timestamp"":27427.5},""timestamp"":27427.5},{""type"":""chart_hover"",""data"":{""x"":929,""y"":361,""timestamp"":27444.100000023842},""timestamp"":27444.100000023842},{""type"":""chart_hover"",""data"":{""x"":931,""y"":359,""timestamp"":27463.30000001192},""timestamp"":27463.30000001192},{""type"":""chart_hover"",""data"":{""x"":932,""y"":357,""timestamp"":27477.69999998808},""timestamp"":27477.69999998808},{""type"":""chart_hover"",""data"":{""x"":934,""y"":354,""timestamp"":27494.100000023842},""timestamp"":27494.100000023842},{""type"":""chart_hover"",""data"":{""x"":934,""y"":353,""timestamp"":27569},""timestamp"":27569},{""type"":""chart_hover"",""data"":{""x"":935,""y"":353,""timestamp"":27579.30000001192},""timestamp"":27579.30000001192},{""type"":""chart_hover"",""data"":{""x"":935,""y"":352,""timestamp"":27594.69999998808},""timestamp"":27594.69999998808},{""type"":""chart_hover"",""data"":{""x"":937,""y"":350,""timestamp"":27610.600000023842},""timestamp"":27610.600000023842},{""type"":""chart_hover"",""data"":{""x"":937,""y"":349,""timestamp"":27627.69999998808},""timestamp"":27627.69999998808},{""type"":""chart_hover"",""data"":{""x"":939,""y"":345,""timestamp"":27644},""timestamp"":27644},{""type"":""chart_hover"",""data"":{""x"":941,""y"":341,""timestamp"":27661.30000001192},""timestamp"":27661.30000001192},{""type"":""chart_hover"",""data"":{""x"":943,""y"":337,""timestamp"":27681.69999998808},""timestamp"":27681.69999998808},{""type"":""chart_hover"",""data"":{""x"":943,""y"":336,""timestamp"":27695},""timestamp"":27695},{""type"":""chart_hover"",""data"":{""x"":944,""y"":333,""timestamp"":27710.899999976158},""timestamp"":27710.899999976158},{""type"":""chart_hover"",""data"":{""x"":947,""y"":325,""timestamp"":27731.30000001192},""timestamp"":27731.30000001192},{""type"":""chart_hover"",""data"":{""x"":948,""y"":323,""timestamp"":27744.100000023842},""timestamp"":27744.19999998808},{""type"":""chart_hover"",""data"":{""x"":950,""y"":317,""timestamp"":27760.80000001192},""timestamp"":27760.80000001192},{""type"":""chart_hover"",""data"":{""x"":951,""y"":314,""timestamp"":27777.899999976158},""timestamp"":27777.899999976158},{""type"":""chart_hover"",""data"":{""x"":951,""y"":310,""timestamp"":27794.19999998808},""timestamp"":27794.19999998808},{""type"":""chart_hover"",""data"":{""x"":951,""y"":305,""timestamp"":27811.30000001192},""timestamp"":27811.30000001192},{""type"":""chart_hover"",""data"":{""x"":951,""y"":304,""timestamp"":27829.600000023842},""timestamp"":27829.600000023842},{""type"":""chart_hover"",""data"":{""x"":951,""y"":302,""timestamp"":27844.100000023842},""timestamp"":27844.100000023842},{""type"":""chart_hover"",""data"":{""x"":951,""y"":300,""timestamp"":27860.600000023842},""timestamp"":27860.600000023842},{""type"":""chart_hover"",""data"":{""x"":951,""y"":297,""timestamp"":27877.30000001192},""timestamp"":27877.30000001192},{""type"":""chart_hover"",""data"":{""x"":951,""y"":296,""timestamp"":27893.899999976158},""timestamp"":27893.899999976158},{""type"":""chart_hover"",""data"":{""x"":951,""y"":294,""timestamp"":27910.899999976158},""timestamp"":27910.899999976158},{""type"":""chart_hover"",""data"":{""x"":951,""y"":293,""timestamp"":28012.399999976158},""timestamp"":28012.399999976158},{""type"":""chart_hover"",""data"":{""x"":951,""y"":292,""timestamp"":28060.600000023842},""timestamp"":28060.600000023842},{""type"":""chart_hover"",""data"":{""x"":951,""y"":291,""timestamp"":28179.19999998808},""timestamp"":28179.19999998808},{""type"":""chart_hover"",""data"":{""x"":951,""y"":290,""timestamp"":28193.899999976158},""timestamp"":28193.899999976158},{""type"":""chart_hover"",""data"":{""x"":951,""y"":289,""timestamp"":28259.5},""timestamp"":28259.5},{""type"":""chart_hover"",""data"":{""x"":951,""y"":288,""timestamp"":28279.600000023842},""timestamp"":28279.600000023842},{""type"":""chart_hover"",""data"":{""x"":951,""y"":287,""timestamp"":28327},""timestamp"":28327},{""type"":""chart_hover"",""data"":{""x"":951,""y"":286,""timestamp"":28343.899999976158},""timestamp"":28343.899999976158},{""type"":""chart_hover"",""data"":{""x"":953,""y"":285,""timestamp"":30265.399999976158},""timestamp"":30265.399999976158},{""type"":""chart_hover"",""data"":{""x"":953,""y"":284,""timestamp"":35009.30000001192},""timestamp"":35009.30000001192},{""type"":""chart_hover"",""data"":{""x"":953,""y"":283,""timestamp"":35027.69999998808},""timestamp"":35027.69999998808},{""type"":""chart_hover"",""data"":{""x"":953,""y"":281,""timestamp"":35045.5},""timestamp"":35045.5},{""type"":""chart_hover"",""data"":{""x"":954,""y"":278,""timestamp"":35060.5},""timestamp"":35060.5},{""type"":""chart_hover"",""data"":{""x"":954,""y"":276,""timestamp"":35077.39999997616},""timestamp"":35077.39999997616},{""type"":""chart_hover"",""data"":{""x"":954,""y"":273,""timestamp"":35094},""timestamp"":35094},{""type"":""chart_hover"",""data"":{""x"":954,""y"":267,""timestamp"":35110.5},""timestamp"":35110.5},{""type"":""chart_hover"",""data"":{""x"":955,""y"":265,""timestamp"":35127.30000001192},""timestamp"":35127.30000001192},{""type"":""chart_hover"",""data"":{""x"":955,""y"":263,""timestamp"":35144.30000001192},""timestamp"":35144.30000001192},{""type"":""chart_hover"",""data"":{""x"":955,""y"":262,""timestamp"":35160.80000001192},""timestamp"":35160.80000001192},{""type"":""chart_hover"",""data"":{""x"":955,""y"":263,""timestamp"":35716.10000002384},""timestamp"":35716.10000002384},{""type"":""chart_hover"",""data"":{""x"":955,""y"":264,""timestamp"":35806.5},""timestamp"":35806.5},{""type"":""chart_hover"",""data"":{""x"":955,""y"":265,""timestamp"":35810.60000002384},""timestamp"":35810.60000002384},{""type"":""chart_hover"",""data"":{""x"":955,""y"":266,""timestamp"":35836.30000001192},""timestamp"":35836.30000001192},{""type"":""chart_hover"",""data"":{""x"":955,""y"":267,""timestamp"":35877.39999997616},""timestamp"":35877.39999997616},{""type"":""chart_hover"",""data"":{""x"":955,""y"":268,""timestamp"":35894.10000002384},""timestamp"":35894.10000002384},{""type"":""chart_hover"",""data"":{""x"":955,""y"":269,""timestamp"":39331},""timestamp"":39331},{""type"":""chart_hover"",""data"":{""x"":955,""y"":270,""timestamp"":39355.89999997616},""timestamp"":39355.89999997616},{""type"":""chart_hover"",""data"":{""x"":955,""y"":271,""timestamp"":39362.10000002384},""timestamp"":39362.10000002384},{""type"":""chart_hover"",""data"":{""x"":955,""y"":272,""timestamp"":39377.5},""timestamp"":39377.5},{""type"":""chart_hover"",""data"":{""x"":955,""y"":278,""timestamp"":39394},""timestamp"":39394},{""type"":""chart_hover"",""data"":{""x"":955,""y"":285,""timestamp"":39410.89999997616},""timestamp"":39410.89999997616},{""type"":""chart_hover"",""data"":{""x"":955,""y"":293,""timestamp"":39427.19999998808},""timestamp"":39427.19999998808},{""type"":""chart_hover"",""data"":{""x"":955,""y"":298,""timestamp"":39443.89999997616},""timestamp"":39443.89999997616},{""type"":""chart_hover"",""data"":{""x"":955,""y"":303,""timestamp"":39460.5},""timestamp"":39460.60000002384},{""type"":""chart_hover"",""data"":{""x"":955,""y"":305,""timestamp"":39477.10000002384},""timestamp"":39477.10000002384},{""type"":""chart_hover"",""data"":{""x"":955,""y"":312,""timestamp"":39493.89999997616},""timestamp"":39493.89999997616},{""type"":""chart_hover"",""data"":{""x"":955,""y"":316,""timestamp"":39510.60000002384},""timestamp"":39510.60000002384},{""type"":""chart_hover"",""data"":{""x"":955,""y"":320,""timestamp"":39527.10000002384},""timestamp"":39527.10000002384},{""type"":""chart_hover"",""data"":{""x"":955,""y"":324,""timestamp"":39543.89999997616},""timestamp"":39543.89999997616},{""type"":""chart_hover"",""data"":{""x"":955,""y"":327,""timestamp"":39560.69999998808},""timestamp"":39560.69999998808},{""type"":""chart_hover"",""data"":{""x"":955,""y"":328,""timestamp"":39577.10000002384},""timestamp"":39577.10000002384},{""type"":""chart_hover"",""data"":{""x"":955,""y"":329,""timestamp"":39594},""timestamp"":39594},{""type"":""chart_hover"",""data"":{""x"":955,""y"":330,""timestamp"":39654.19999998808},""timestamp"":39654.19999998808},{""type"":""chart_hover"",""data"":{""x"":955,""y"":331,""timestamp"":39693.89999997616},""timestamp"":39693.89999997616},{""type"":""chart_hover"",""data"":{""x"":955,""y"":332,""timestamp"":40047.89999997616},""timestamp"":40047.89999997616},{""type"":""chart_hover"",""data"":{""x"":955,""y"":333,""timestamp"":40170.69999998808},""timestamp"":40170.69999998808},{""type"":""chart_hover"",""data"":{""x"":955,""y"":335,""timestamp"":40210.89999997616},""timestamp"":40210.89999997616},{""type"":""chart_hover"",""data"":{""x"":956,""y"":338,""timestamp"":40227.69999998808},""timestamp"":40227.69999998808},{""type"":""chart_hover"",""data"":{""x"":956,""y"":342,""timestamp"":40244.10000002384},""timestamp"":40244.19999998808},{""type"":""chart_hover"",""data"":{""x"":956,""y"":345,""timestamp"":40260.60000002384},""timestamp"":40260.60000002384},{""type"":""chart_hover"",""data"":{""x"":956,""y"":346,""timestamp"":40277.69999998808},""timestamp"":40277.69999998808},{""type"":""chart_hover"",""data"":{""x"":956,""y"":348,""timestamp"":40294.19999998808},""timestamp"":40294.19999998808},{""type"":""chart_hover"",""data"":{""x"":956,""y"":349,""timestamp"":40311.10000002384},""timestamp"":40311.10000002384},{""type"":""chart_hover"",""data"":{""x"":956,""y"":350,""timestamp"":40335},""timestamp"":40335},{""type"":""chart_hover"",""data"":{""x"":956,""y"":351,""timestamp"":40351.10000002384},""timestamp"":40351.10000002384},{""type"":""chart_hover"",""data"":{""x"":956,""y"":352,""timestamp"":40360.80000001192},""timestamp"":40360.80000001192},{""type"":""chart_hover"",""data"":{""x"":956,""y"":353,""timestamp"":40377.39999997616},""timestamp"":40377.39999997616},{""type"":""chart_hover"",""data"":{""x"":956,""y"":354,""timestamp"":40394.30000001192},""timestamp"":40394.30000001192},{""type"":""chart_hover"",""data"":{""x"":957,""y"":356,""timestamp"":40410.89999997616},""timestamp"":40410.89999997616},{""type"":""chart_hover"",""data"":{""x"":957,""y"":357,""timestamp"":40427.39999997616},""timestamp"":40427.39999997616},{""type"":""chart_hover"",""data"":{""x"":957,""y"":359,""timestamp"":40447},""timestamp"":40447},{""type"":""chart_hover"",""data"":{""x"":957,""y"":360,""timestamp"":40470.39999997616},""timestamp"":40470.39999997616},{""type"":""chart_hover"",""data"":{""x"":957,""y"":361,""timestamp"":40510.80000001192},""timestamp"":40510.80000001192},{""type"":""chart_hover"",""data"":{""x"":957,""y"":363,""timestamp"":40527.39999997616},""timestamp"":40527.39999997616},{""type"":""chart_hover"",""data"":{""x"":957,""y"":365,""timestamp"":40544.19999998808},""timestamp"":40544.19999998808},{""type"":""chart_hover"",""data"":{""x"":957,""y"":367,""timestamp"":40560.89999997616},""timestamp"":40560.89999997616},{""type"":""chart_hover"",""data"":{""x"":957,""y"":369,""timestamp"":40577.5},""timestamp"":40577.5},{""type"":""chart_hover"",""data"":{""x"":957,""y"":370,""timestamp"":40594.60000002384},""timestamp"":40594.60000002384},{""type"":""chart_hover"",""data"":{""x"":957,""y"":371,""timestamp"":40611.19999998808},""timestamp"":40611.19999998808},{""type"":""chart_hover"",""data"":{""x"":957,""y"":373,""timestamp"":40627.80000001192},""timestamp"":40627.80000001192},{""type"":""chart_hover"",""data"":{""x"":957,""y"":374,""timestamp"":40653},""timestamp"":40653},{""type"":""chart_hover"",""data"":{""x"":957,""y"":375,""timestamp"":40663.10000002384},""timestamp"":40663.10000002384},{""type"":""chart_hover"",""data"":{""x"":957,""y"":376,""timestamp"":40679.30000001192},""timestamp"":40679.30000001192},{""type"":""chart_hover"",""data"":{""x"":957,""y"":377,""timestamp"":40693.80000001192},""timestamp"":40693.80000001192},{""type"":""chart_hover"",""data"":{""x"":957,""y"":378,""timestamp"":40713},""timestamp"":40713},{""type"":""chart_hover"",""data"":{""x"":957,""y"":379,""timestamp"":40729.89999997616},""timestamp"":40729.89999997616},{""type"":""chart_hover"",""data"":{""x"":957,""y"":380,""timestamp"":40744.60000002384},""timestamp"":40744.60000002384},{""type"":""chart_hover"",""data"":{""x"":957,""y"":383,""timestamp"":40761.10000002384},""timestamp"":40761.10000002384},{""type"":""chart_hover"",""data"":{""x"":957,""y"":384,""timestamp"":40777.69999998808},""timestamp"":40777.69999998808},{""type"":""chart_hover"",""data"":{""x"":957,""y"":385,""timestamp"":40794.19999998808},""timestamp"":40794.19999998808},{""type"":""chart_hover"",""data"":{""x"":957,""y"":389,""timestamp"":40810.69999998808},""timestamp"":40810.69999998808},{""type"":""chart_hover"",""data"":{""x"":957,""y"":392,""timestamp"":40827.30000001192},""timestamp"":40827.30000001192},{""type"":""chart_hover"",""data"":{""x"":957,""y"":396,""timestamp"":40844.39999997616},""timestamp"":40844.39999997616},{""type"":""chart_hover"",""data"":{""x"":957,""y"":401,""timestamp"":40860.89999997616},""timestamp"":40860.89999997616},{""type"":""chart_hover"",""data"":{""x"":957,""y"":406,""timestamp"":40877.69999998808},""timestamp"":40877.69999998808},{""type"":""chart_hover"",""data"":{""x"":957,""y"":411,""timestamp"":40894.30000001192},""timestamp"":40894.30000001192},{""type"":""chart_hover"",""data"":{""x"":957,""y"":418,""timestamp"":40910.89999997616},""timestamp"":40910.89999997616},{""type"":""chart_hover"",""data"":{""x"":957,""y"":422,""timestamp"":40927.39999997616},""timestamp"":40927.39999997616},{""type"":""chart_hover"",""data"":{""x"":958,""y"":425,""timestamp"":40944.19999998808},""timestamp"":40944.19999998808},{""type"":""chart_hover"",""data"":{""x"":958,""y"":429,""timestamp"":40960.69999998808},""timestamp"":40960.69999998808},{""type"":""chart_hover"",""data"":{""x"":958,""y"":430,""timestamp"":40977.69999998808},""timestamp"":40977.69999998808},{""type"":""chart_hover"",""data"":{""x"":958,""y"":431,""timestamp"":40994.5},""timestamp"":40994.5},{""type"":""chart_hover"",""data"":{""x"":958,""y"":433,""timestamp"":41010.69999998808},""timestamp"":41010.69999998808},{""type"":""chart_hover"",""data"":{""x"":958,""y"":434,""timestamp"":41027.39999997616},""timestamp"":41027.39999997616},{""type"":""chart_hover"",""data"":{""x"":958,""y"":436,""timestamp"":41044.10000002384},""timestamp"":41044.10000002384},{""type"":""chart_hover"",""data"":{""x"":958,""y"":438,""timestamp"":41061},""timestamp"":41061},{""type"":""chart_hover"",""data"":{""x"":958,""y"":440,""timestamp"":41077.39999997616},""timestamp"":41077.39999997616},{""type"":""chart_hover"",""data"":{""x"":958,""y"":441,""timestamp"":41095.80000001192},""timestamp"":41095.80000001192},{""type"":""chart_hover"",""data"":{""x"":958,""y"":442,""timestamp"":41111},""timestamp"":41111},{""type"":""chart_hover"",""data"":{""x"":958,""y"":444,""timestamp"":41128.39999997616},""timestamp"":41128.39999997616},{""type"":""chart_hover"",""data"":{""x"":958,""y"":446,""timestamp"":41144.69999998808},""timestamp"":41144.69999998808},{""type"":""chart_hover"",""data"":{""x"":958,""y"":447,""timestamp"":41160.80000001192},""timestamp"":41160.80000001192},{""type"":""chart_hover"",""data"":{""x"":958,""y"":449,""timestamp"":41177.19999998808},""timestamp"":41177.19999998808},{""type"":""chart_hover"",""data"":{""x"":958,""y"":451,""timestamp"":41194.19999998808},""timestamp"":41194.19999998808},{""type"":""chart_hover"",""data"":{""x"":958,""y"":454,""timestamp"":41210.60000002384},""timestamp"":41210.60000002384},{""type"":""chart_hover"",""data"":{""x"":958,""y"":459,""timestamp"":41230.89999997616},""timestamp"":41230.89999997616},{""type"":""chart_hover"",""data"":{""x"":958,""y"":464,""timestamp"":41244.89999997616},""timestamp"":41244.89999997616},{""type"":""chart_hover"",""data"":{""x"":958,""y"":468,""timestamp"":41260.80000001192},""timestamp"":41260.80000001192},{""type"":""chart_hover"",""data"":{""x"":958,""y"":473,""timestamp"":41277.5},""timestamp"":41277.60000002384},{""type"":""chart_hover"",""data"":{""x"":958,""y"":483,""timestamp"":41294},""timestamp"":41294},{""type"":""chart_hover"",""data"":{""x"":958,""y"":489,""timestamp"":41311.10000002384},""timestamp"":41311.10000002384},{""type"":""chart_hover"",""data"":{""x"":958,""y"":492,""timestamp"":41327.39999997616},""timestamp"":41327.39999997616},{""type"":""chart_hover"",""data"":{""x"":958,""y"":498,""timestamp"":41344.19999998808},""timestamp"":41344.19999998808},{""type"":""chart_hover"",""data"":{""x"":958,""y"":508,""timestamp"":41361.10000002384},""timestamp"":41361.10000002384},{""type"":""chart_hover"",""data"":{""x"":958,""y"":514,""timestamp"":41377.39999997616},""timestamp"":41377.39999997616},{""type"":""chart_hover"",""data"":{""x"":958,""y"":521,""timestamp"":41394.19999998808},""timestamp"":41394.19999998808},{""type"":""chart_hover"",""data"":{""x"":958,""y"":528,""timestamp"":41411},""timestamp"":41411},{""type"":""chart_hover"",""data"":{""x"":958,""y"":535,""timestamp"":41427.60000002384},""timestamp"":41427.60000002384},{""type"":""chart_hover"",""data"":{""x"":958,""y"":552,""timestamp"":41444.10000002384},""timestamp"":41444.10000002384},{""type"":""chart_hover"",""data"":{""x"":958,""y"":558,""timestamp"":41460.80000001192},""timestamp"":41460.80000001192},{""type"":""chart_hover"",""data"":{""x"":958,""y"":572,""timestamp"":41477.5},""timestamp"":41477.5},{""type"":""chart_hover"",""data"":{""x"":958,""y"":591,""timestamp"":41494.10000002384},""timestamp"":41494.10000002384},{""type"":""chart_leave"",""data"":{""timestamp"":41511.10000002384},""timestamp"":41511.19999998808},{""type"":""chart_enter"",""data"":{""timestamp"":47710.80000001192},""timestamp"":47710.80000001192},{""type"":""chart_hover"",""data"":{""x"":1112,""y"":599,""timestamp"":47710.80000001192},""timestamp"":47710.80000001192},{""type"":""chart_hover"",""data"":{""x"":1118,""y"":596,""timestamp"":47728.69999998808},""timestamp"":47728.69999998808},{""type"":""chart_hover"",""data"":{""x"":1119,""y"":595,""timestamp"":47861.5},""timestamp"":47861.5},{""type"":""chart_hover"",""data"":{""x"":1120,""y"":595,""timestamp"":47878.19999998808},""timestamp"":47878.19999998808},{""type"":""chart_hover"",""data"":{""x"":1120,""y"":594,""timestamp"":47894.69999998808},""timestamp"":47894.69999998808},{""type"":""chart_hover"",""data"":{""x"":1120,""y"":593,""timestamp"":47944.89999997616},""timestamp"":47945},{""type"":""chart_hover"",""data"":{""x"":1121,""y"":591,""timestamp"":48044.10000002384},""timestamp"":48044.10000002384},{""type"":""chart_hover"",""data"":{""x"":1121,""y"":588,""timestamp"":48060.80000001192},""timestamp"":48060.80000001192},{""type"":""chart_hover"",""data"":{""x"":1123,""y"":585,""timestamp"":48077.5},""timestamp"":48077.5},{""type"":""chart_hover"",""data"":{""x"":1124,""y"":583,""timestamp"":48094.19999998808},""timestamp"":48094.19999998808},{""type"":""chart_hover"",""data"":{""x"":1125,""y"":582,""timestamp"":48110.89999997616},""timestamp"":48110.89999997616},{""type"":""chart_hover"",""data"":{""x"":1125,""y"":581,""timestamp"":48384.5},""timestamp"":48384.5},{""type"":""chart_hover"",""data"":{""x"":1124,""y"":580,""timestamp"":48400.39999997616},""timestamp"":48400.39999997616},{""type"":""chart_hover"",""data"":{""x"":1123,""y"":578,""timestamp"":48410.69999998808},""timestamp"":48410.69999998808},{""type"":""chart_hover"",""data"":{""x"":1121,""y"":577,""timestamp"":48427.30000001192},""timestamp"":48427.30000001192},{""type"":""chart_hover"",""data"":{""x"":1121,""y"":570,""timestamp"":48444},""timestamp"":48444},{""type"":""chart_hover"",""data"":{""x"":1119,""y"":564,""timestamp"":48460.80000001192},""timestamp"":48460.80000001192},{""type"":""chart_hover"",""data"":{""x"":1118,""y"":561,""timestamp"":48477.5},""timestamp"":48477.5},{""type"":""chart_hover"",""data"":{""x"":1118,""y"":560,""timestamp"":48493.89999997616},""timestamp"":48493.89999997616},{""type"":""chart_hover"",""data"":{""x"":1118,""y"":559,""timestamp"":48511.5},""timestamp"":48511.5},{""type"":""chart_hover"",""data"":{""x"":1118,""y"":558,""timestamp"":48531.10000002384},""timestamp"":48531.10000002384},{""type"":""chart_hover"",""data"":{""x"":1118,""y"":557,""timestamp"":48544},""timestamp"":48544},{""type"":""chart_hover"",""data"":{""x"":1118,""y"":552,""timestamp"":48560.80000001192},""timestamp"":48560.80000001192},{""type"":""chart_hover"",""data"":{""x"":1118,""y"":541,""timestamp"":48577.5},""timestamp"":48577.5},{""type"":""chart_hover"",""data"":{""x"":1118,""y"":536,""timestamp"":48594},""timestamp"":48594},{""type"":""chart_hover"",""data"":{""x"":1118,""y"":534,""timestamp"":48610.89999997616},""timestamp"":48610.89999997616},{""type"":""chart_hover"",""data"":{""x"":1118,""y"":530,""timestamp"":48627.39999997616},""timestamp"":48627.39999997616},{""type"":""chart_hover"",""data"":{""x"":1118,""y"":528,""timestamp"":48644},""timestamp"":48644},{""type"":""chart_hover"",""data"":{""x"":1118,""y"":526,""timestamp"":48660.69999998808},""timestamp"":48660.69999998808},{""type"":""chart_hover"",""data"":{""x"":1118,""y"":523,""timestamp"":48677.69999998808},""timestamp"":48677.69999998808},{""type"":""chart_hover"",""data"":{""x"":1118,""y"":516,""timestamp"":48694},""timestamp"":48694},{""type"":""chart_hover"",""data"":{""x"":1118,""y"":508,""timestamp"":48710.5},""timestamp"":48710.5},{""type"":""chart_hover"",""data"":{""x"":1118,""y"":495,""timestamp"":48727.5},""timestamp"":48727.5},{""type"":""chart_hover"",""data"":{""x"":1118,""y"":487,""timestamp"":48744.30000001192},""timestamp"":48744.30000001192},{""type"":""chart_hover"",""data"":{""x"":1118,""y"":482,""timestamp"":48761.10000002384},""timestamp"":48761.10000002384},{""type"":""chart_hover"",""data"":{""x"":1118,""y"":475,""timestamp"":48777.39999997616},""timestamp"":48777.39999997616},{""type"":""chart_hover"",""data"":{""x"":1117,""y"":469,""timestamp"":48794.39999997616},""timestamp"":48794.39999997616},{""type"":""chart_hover"",""data"":{""x"":1117,""y"":464,""timestamp"":48810.80000001192},""timestamp"":48810.80000001192},{""type"":""chart_hover"",""data"":{""x"":1117,""y"":461,""timestamp"":48827.5},""timestamp"":48827.5},{""type"":""chart_hover"",""data"":{""x"":1115,""y"":456,""timestamp"":48844.10000002384},""timestamp"":48844.10000002384},{""type"":""chart_hover"",""data"":{""x"":1112,""y"":451,""timestamp"":48860.80000001192},""timestamp"":48860.80000001192},{""type"":""chart_hover"",""data"":{""x"":1110,""y"":446,""timestamp"":48877.60000002384},""timestamp"":48877.60000002384},{""type"":""chart_hover"",""data"":{""x"":1108,""y"":441,""timestamp"":48894.19999998808},""timestamp"":48894.19999998808},{""type"":""chart_hover"",""data"":{""x"":1104,""y"":433,""timestamp"":48910.60000002384},""timestamp"":48910.60000002384},{""type"":""chart_hover"",""data"":{""x"":1101,""y"":427,""timestamp"":48927.5},""timestamp"":48927.5},{""type"":""chart_hover"",""data"":{""x"":1094,""y"":416,""timestamp"":48944},""timestamp"":48944},{""type"":""chart_hover"",""data"":{""x"":1090,""y"":410,""timestamp"":48961},""timestamp"":48961},{""type"":""chart_hover"",""data"":{""x"":1087,""y"":405,""timestamp"":48977.5},""timestamp"":48977.5},{""type"":""chart_hover"",""data"":{""x"":1085,""y"":402,""timestamp"":48994},""timestamp"":48994},{""type"":""chart_hover"",""data"":{""x"":1083,""y"":400,""timestamp"":49011},""timestamp"":49011},{""type"":""chart_hover"",""data"":{""x"":1082,""y"":399,""timestamp"":49027.5},""timestamp"":49027.5},{""type"":""chart_hover"",""data"":{""x"":1082,""y"":398,""timestamp"":49044.19999998808},""timestamp"":49044.19999998808},{""type"":""chart_hover"",""data"":{""x"":1081,""y"":398,""timestamp"":49060.89999997616},""timestamp"":49060.89999997616},{""type"":""chart_hover"",""data"":{""x"":1081,""y"":397,""timestamp"":49079.80000001192},""timestamp"":49079.80000001192},{""type"":""chart_hover"",""data"":{""x"":1080,""y"":397,""timestamp"":49097.69999998808},""timestamp"":49097.69999998808},{""type"":""chart_hover"",""data"":{""x"":1079,""y"":395,""timestamp"":49110.89999997616},""timestamp"":49110.89999997616},{""type"":""chart_hover"",""data"":{""x"":1079,""y"":394,""timestamp"":49132.89999997616},""timestamp"":49132.89999997616},{""type"":""chart_hover"",""data"":{""x"":1079,""y"":393,""timestamp"":49144.10000002384},""timestamp"":49144.10000002384},{""type"":""chart_hover"",""data"":{""x"":1078,""y"":392,""timestamp"":49161},""timestamp"":49161},{""type"":""chart_hover"",""data"":{""x"":1078,""y"":390,""timestamp"":49177.69999998808},""timestamp"":49177.69999998808},{""type"":""chart_hover"",""data"":{""x"":1077,""y"":389,""timestamp"":49194.10000002384},""timestamp"":49194.10000002384},{""type"":""chart_hover"",""data"":{""x"":1077,""y"":388,""timestamp"":49210.69999998808},""timestamp"":49210.69999998808},{""type"":""chart_hover"",""data"":{""x"":1077,""y"":387,""timestamp"":49227.5},""timestamp"":49227.5},{""type"":""chart_hover"",""data"":{""x"":1077,""y"":385,""timestamp"":49244},""timestamp"":49244},{""type"":""chart_hover"",""data"":{""x"":1077,""y"":384,""timestamp"":49260.60000002384},""timestamp"":49260.60000002384},{""type"":""chart_hover"",""data"":{""x"":1077,""y"":383,""timestamp"":49277.5},""timestamp"":49277.5},{""type"":""chart_hover"",""data"":{""x"":1077,""y"":381,""timestamp"":49294.39999997616},""timestamp"":49294.39999997616},{""type"":""chart_hover"",""data"":{""x"":1077,""y"":380,""timestamp"":49310.69999998808},""timestamp"":49310.69999998808},{""type"":""chart_hover"",""data"":{""x"":1077,""y"":378,""timestamp"":49327.80000001192},""timestamp"":49327.80000001192},{""type"":""chart_hover"",""data"":{""x"":1077,""y"":376,""timestamp"":49344},""timestamp"":49344},{""type"":""chart_hover"",""data"":{""x"":1077,""y"":375,""timestamp"":49365.39999997616},""timestamp"":49365.39999997616},{""type"":""chart_hover"",""data"":{""x"":1077,""y"":374,""timestamp"":49377.39999997616},""timestamp"":49377.39999997616},{""type"":""chart_hover"",""data"":{""x"":1077,""y"":373,""timestamp"":49395.80000001192},""timestamp"":49395.80000001192},{""type"":""chart_hover"",""data"":{""x"":1077,""y"":371,""timestamp"":49418.60000002384},""timestamp"":49418.60000002384},{""type"":""chart_hover"",""data"":{""x"":1077,""y"":370,""timestamp"":49427.5},""timestamp"":49427.5},{""type"":""chart_hover"",""data"":{""x"":1077,""y"":368,""timestamp"":49444.10000002384},""timestamp"":49444.10000002384},{""type"":""chart_hover"",""data"":{""x"":1076,""y"":367,""timestamp"":49460.80000001192},""timestamp"":49460.80000001192},{""type"":""chart_hover"",""data"":{""x"":1076,""y"":365,""timestamp"":49477.39999997616},""timestamp"":49477.39999997616},{""type"":""chart_hover"",""data"":{""x"":1076,""y"":364,""timestamp"":49501.39999997616},""timestamp"":49501.39999997616},{""type"":""chart_hover"",""data"":{""x"":1076,""y"":363,""timestamp"":49510.5},""timestamp"":49510.5},{""type"":""chart_hover"",""data"":{""x"":1076,""y"":361,""timestamp"":49527.60000002384},""timestamp"":49527.60000002384},{""type"":""chart_hover"",""data"":{""x"":1076,""y"":357,""timestamp"":49544.10000002384},""timestamp"":49544.10000002384},{""type"":""chart_hover"",""data"":{""x"":1075,""y"":353,""timestamp"":49560.89999997616},""timestamp"":49560.89999997616},{""type"":""chart_hover"",""data"":{""x"":1075,""y"":351,""timestamp"":49577.19999998808},""timestamp"":49577.19999998808},{""type"":""chart_hover"",""data"":{""x"":1074,""y"":349,""timestamp"":49593.80000001192},""timestamp"":49593.80000001192},{""type"":""chart_hover"",""data"":{""x"":1073,""y"":349,""timestamp"":49610.89999997616},""timestamp"":49610.89999997616},{""type"":""chart_hover"",""data"":{""x"":1073,""y"":347,""timestamp"":49627.89999997616},""timestamp"":49627.89999997616},{""type"":""chart_hover"",""data"":{""x"":1071,""y"":344,""timestamp"":49644.10000002384},""timestamp"":49644.10000002384},{""type"":""chart_hover"",""data"":{""x"":1067,""y"":342,""timestamp"":49660.89999997616},""timestamp"":49660.89999997616},{""type"":""chart_hover"",""data"":{""x"":1063,""y"":339,""timestamp"":49677.5},""timestamp"":49677.5},{""type"":""chart_hover"",""data"":{""x"":1057,""y"":337,""timestamp"":49694.30000001192},""timestamp"":49694.30000001192},{""type"":""chart_hover"",""data"":{""x"":1053,""y"":336,""timestamp"":49710.80000001192},""timestamp"":49710.80000001192},{""type"":""chart_hover"",""data"":{""x"":1050,""y"":336,""timestamp"":49727.5},""timestamp"":49727.5},{""type"":""chart_hover"",""data"":{""x"":1048,""y"":336,""timestamp"":49744.30000001192},""timestamp"":49744.30000001192},{""type"":""chart_hover"",""data"":{""x"":1039,""y"":340,""timestamp"":49761.30000001192},""timestamp"":49761.30000001192},{""type"":""chart_hover"",""data"":{""x"":1026,""y"":352,""timestamp"":49777.69999998808},""timestamp"":49777.69999998808},{""type"":""chart_hover"",""data"":{""x"":1016,""y"":363,""timestamp"":49794.39999997616},""timestamp"":49794.39999997616},{""type"":""chart_hover"",""data"":{""x"":1010,""y"":371,""timestamp"":49810.5},""timestamp"":49810.5},{""type"":""chart_hover"",""data"":{""x"":1007,""y"":375,""timestamp"":49827.30000001192},""timestamp"":49827.30000001192},{""type"":""chart_hover"",""data"":{""x"":1007,""y"":385,""timestamp"":49844.10000002384},""timestamp"":49844.10000002384},{""type"":""chart_hover"",""data"":{""x"":1007,""y"":392,""timestamp"":49860.89999997616},""timestamp"":49860.89999997616},{""type"":""chart_hover"",""data"":{""x"":1009,""y"":402,""timestamp"":49877.60000002384},""timestamp"":49877.60000002384},{""type"":""chart_hover"",""data"":{""x"":1011,""y"":409,""timestamp"":49894.10000002384},""timestamp"":49894.10000002384},{""type"":""chart_hover"",""data"":{""x"":1012,""y"":418,""timestamp"":49911},""timestamp"":49911},{""type"":""chart_hover"",""data"":{""x"":1012,""y"":427,""timestamp"":49927.10000002384},""timestamp"":49927.19999998808},{""type"":""chart_hover"",""data"":{""x"":1012,""y"":436,""timestamp"":49944},""timestamp"":49944.10000002384},{""type"":""chart_hover"",""data"":{""x"":1012,""y"":441,""timestamp"":49960.80000001192},""timestamp"":49960.80000001192},{""type"":""chart_hover"",""data"":{""x"":1012,""y"":443,""timestamp"":49977.30000001192},""timestamp"":49977.30000001192},{""type"":""chart_hover"",""data"":{""x"":1010,""y"":448,""timestamp"":49993.89999997616},""timestamp"":49993.89999997616},{""type"":""chart_hover"",""data"":{""x"":1010,""y"":453,""timestamp"":50010.89999997616},""timestamp"":50010.89999997616},{""type"":""chart_hover"",""data"":{""x"":1008,""y"":458,""timestamp"":50027.5},""timestamp"":50027.5},{""type"":""chart_hover"",""data"":{""x"":1007,""y"":461,""timestamp"":50044.10000002384},""timestamp"":50044.10000002384},{""type"":""chart_hover"",""data"":{""x"":1005,""y"":469,""timestamp"":50060.89999997616},""timestamp"":50060.89999997616},{""type"":""chart_hover"",""data"":{""x"":1003,""y"":474,""timestamp"":50077.39999997616},""timestamp"":50077.39999997616},{""type"":""chart_hover"",""data"":{""x"":1000,""y"":480,""timestamp"":50094.10000002384},""timestamp"":50094.10000002384},{""type"":""chart_hover"",""data"":{""x"":1000,""y"":482,""timestamp"":50110.80000001192},""timestamp"":50110.80000001192},{""type"":""chart_hover"",""data"":{""x"":999,""y"":483,""timestamp"":50127.39999997616},""timestamp"":50127.5},{""type"":""chart_hover"",""data"":{""x"":998,""y"":485,""timestamp"":50144.19999998808},""timestamp"":50144.19999998808},{""type"":""chart_hover"",""data"":{""x"":998,""y"":486,""timestamp"":50217.10000002384},""timestamp"":50217.10000002384},{""type"":""chart_hover"",""data"":{""x"":999,""y"":486,""timestamp"":50241.19999998808},""timestamp"":50241.19999998808},{""type"":""chart_hover"",""data"":{""x"":1007,""y"":488,""timestamp"":50277.19999998808},""timestamp"":50277.19999998808},{""type"":""chart_hover"",""data"":{""x"":1021,""y"":489,""timestamp"":50294.10000002384},""timestamp"":50294.10000002384},{""type"":""chart_hover"",""data"":{""x"":1040,""y"":490,""timestamp"":50310.89999997616},""timestamp"":50310.89999997616},{""type"":""chart_hover"",""data"":{""x"":1068,""y"":492,""timestamp"":50327.39999997616},""timestamp"":50327.39999997616},{""type"":""chart_hover"",""data"":{""x"":1070,""y"":492,""timestamp"":50344.39999997616},""timestamp"":50344.39999997616},{""type"":""chart_hover"",""data"":{""x"":1077,""y"":492,""timestamp"":50361},""timestamp"":50361},{""type"":""chart_hover"",""data"":{""x"":1078,""y"":492,""timestamp"":50488.60000002384},""timestamp"":50488.60000002384},{""type"":""chart_hover"",""data"":{""x"":1078,""y"":491,""timestamp"":50498.60000002384},""timestamp"":50498.60000002384},{""type"":""chart_hover"",""data"":{""x"":1079,""y"":491,""timestamp"":50514.30000001192},""timestamp"":50514.30000001192},{""type"":""chart_hover"",""data"":{""x"":1085,""y"":488,""timestamp"":50560.80000001192},""timestamp"":50560.80000001192},{""type"":""chart_hover"",""data"":{""x"":1086,""y"":488,""timestamp"":50577.5},""timestamp"":50577.5},{""type"":""chart_hover"",""data"":{""x"":1092,""y"":487,""timestamp"":50594.39999997616},""timestamp"":50594.39999997616},{""type"":""chart_hover"",""data"":{""x"":1108,""y"":486,""timestamp"":50611.10000002384},""timestamp"":50611.10000002384},{""type"":""chart_hover"",""data"":{""x"":1118,""y"":486,""timestamp"":50627.5},""timestamp"":50627.5},{""type"":""chart_hover"",""data"":{""x"":1124,""y"":485,""timestamp"":50644.39999997616},""timestamp"":50644.39999997616},{""type"":""chart_hover"",""data"":{""x"":1130,""y"":484,""timestamp"":50660.80000001192},""timestamp"":50660.80000001192},{""type"":""chart_hover"",""data"":{""x"":1137,""y"":484,""timestamp"":50677.60000002384},""timestamp"":50677.60000002384},{""type"":""chart_hover"",""data"":{""x"":1148,""y"":482,""timestamp"":50694.19999998808},""timestamp"":50694.19999998808},{""type"":""chart_hover"",""data"":{""x"":1149,""y"":481,""timestamp"":50710.80000001192},""timestamp"":50710.80000001192},{""type"":""chart_hover"",""data"":{""x"":1153,""y"":481,""timestamp"":50727.69999998808},""timestamp"":50727.69999998808},{""type"":""chart_hover"",""data"":{""x"":1154,""y"":480,""timestamp"":50744.39999997616},""timestamp"":50744.39999997616},{""type"":""chart_hover"",""data"":{""x"":1154,""y"":479,""timestamp"":50771.39999997616},""timestamp"":50771.39999997616},{""type"":""chart_hover"",""data"":{""x"":1155,""y"":479,""timestamp"":50777.60000002384},""timestamp"":50777.60000002384},{""type"":""chart_hover"",""data"":{""x"":1156,""y"":478,""timestamp"":50794.69999998808},""timestamp"":50794.69999998808},{""type"":""chart_hover"",""data"":{""x"":1162,""y"":478,""timestamp"":50811},""timestamp"":50811},{""type"":""chart_hover"",""data"":{""x"":1188,""y"":478,""timestamp"":50827.19999998808},""timestamp"":50827.19999998808},{""type"":""chart_hover"",""data"":{""x"":1223,""y"":479,""timestamp"":50844.5},""timestamp"":50844.5},{""type"":""chart_hover"",""data"":{""x"":1252,""y"":480,""timestamp"":50860.89999997616},""timestamp"":50860.89999997616},{""type"":""chart_hover"",""data"":{""x"":1271,""y"":480,""timestamp"":50877.5},""timestamp"":50877.5},{""type"":""chart_hover"",""data"":{""x"":1274,""y"":480,""timestamp"":50894.30000001192},""timestamp"":50894.30000001192},{""type"":""chart_hover"",""data"":{""x"":1274,""y"":479,""timestamp"":51007.60000002384},""timestamp"":51007.60000002384},{""type"":""chart_hover"",""data"":{""x"":1273,""y"":479,""timestamp"":51044},""timestamp"":51044},{""type"":""chart_hover"",""data"":{""x"":1272,""y"":479,""timestamp"":51060.80000001192},""timestamp"":51060.80000001192},{""type"":""chart_hover"",""data"":{""x"":1271,""y"":479,""timestamp"":51077.19999998808},""timestamp"":51077.19999998808},{""type"":""chart_hover"",""data"":{""x"":1270,""y"":479,""timestamp"":51094.10000002384},""timestamp"":51094.10000002384},{""type"":""chart_hover"",""data"":{""x"":1269,""y"":479,""timestamp"":51110.80000001192},""timestamp"":51110.80000001192},{""type"":""chart_hover"",""data"":{""x"":1267,""y"":479,""timestamp"":51127.30000001192},""timestamp"":51127.30000001192},{""type"":""chart_hover"",""data"":{""x"":1266,""y"":479,""timestamp"":51143.89999997616},""timestamp"":51143.89999997616},{""type"":""chart_hover"",""data"":{""x"":1264,""y"":479,""timestamp"":51161},""timestamp"":51161},{""type"":""chart_hover"",""data"":{""x"":1263,""y"":479,""timestamp"":51177.30000001192},""timestamp"":51177.30000001192},{""type"":""chart_hover"",""data"":{""x"":1262,""y"":479,""timestamp"":51194.30000001192},""timestamp"":51194.30000001192},{""type"":""chart_hover"",""data"":{""x"":1260,""y"":479,""timestamp"":51264.80000001192},""timestamp"":51264.80000001192},{""type"":""chart_hover"",""data"":{""x"":1259,""y"":479,""timestamp"":51277.39999997616},""timestamp"":51277.39999997616},{""type"":""chart_hover"",""data"":{""x"":1256,""y"":479,""timestamp"":51293.89999997616},""timestamp"":51293.89999997616},{""type"":""chart_hover"",""data"":{""x"":1254,""y"":479,""timestamp"":51310.80000001192},""timestamp"":51310.80000001192},{""type"":""chart_hover"",""data"":{""x"":1252,""y"":479,""timestamp"":52817.10000002384},""timestamp"":52817.10000002384},{""type"":""chart_hover"",""data"":{""x"":1251,""y"":479,""timestamp"":52834.80000001192},""timestamp"":52834.80000001192},{""type"":""chart_hover"",""data"":{""x"":1250,""y"":479,""timestamp"":52974.39999997616},""timestamp"":52974.39999997616},{""type"":""chart_hover"",""data"":{""x"":1249,""y"":479,""timestamp"":52984.80000001192},""timestamp"":52984.80000001192},{""type"":""chart_hover"",""data"":{""x"":1247,""y"":479,""timestamp"":52993.80000001192},""timestamp"":52993.80000001192},{""type"":""chart_hover"",""data"":{""x"":1244,""y"":479,""timestamp"":53010.80000001192},""timestamp"":53010.80000001192},{""type"":""chart_hover"",""data"":{""x"":1238,""y"":479,""timestamp"":53027.69999998808},""timestamp"":53027.69999998808},{""type"":""chart_hover"",""data"":{""x"":1234,""y"":479,""timestamp"":53044.19999998808},""timestamp"":53044.19999998808},{""type"":""chart_hover"",""data"":{""x"":1232,""y"":479,""timestamp"":53060.60000002384},""timestamp"":53060.60000002384},{""type"":""chart_hover"",""data"":{""x"":1229,""y"":479,""timestamp"":57682.69999998808},""timestamp"":57682.69999998808},{""type"":""chart_hover"",""data"":{""x"":1223,""y"":479,""timestamp"":57694},""timestamp"":57694},{""type"":""chart_hover"",""data"":{""x"":1179,""y"":472,""timestamp"":57710.69999998808},""timestamp"":57710.69999998808},{""type"":""chart_hover"",""data"":{""x"":1133,""y"":467,""timestamp"":57727.19999998808},""timestamp"":57727.19999998808},{""type"":""chart_hover"",""data"":{""x"":1101,""y"":466,""timestamp"":57744},""timestamp"":57744},{""type"":""chart_hover"",""data"":{""x"":1093,""y"":465,""timestamp"":57760.69999998808},""timestamp"":57760.69999998808},{""type"":""chart_hover"",""data"":{""x"":1089,""y"":465,""timestamp"":57777.80000001192},""timestamp"":57777.80000001192},{""type"":""chart_hover"",""data"":{""x"":1087,""y"":465,""timestamp"":57932.80000001192},""timestamp"":57932.80000001192},{""type"":""chart_hover"",""data"":{""x"":1084,""y"":465,""timestamp"":57944.10000002384},""timestamp"":57944.10000002384},{""type"":""chart_hover"",""data"":{""x"":1067,""y"":465,""timestamp"":57960.80000001192},""timestamp"":57960.80000001192},{""type"":""chart_hover"",""data"":{""x"":1044,""y"":465,""timestamp"":57977.69999998808},""timestamp"":57977.69999998808},{""type"":""chart_hover"",""data"":{""x"":1034,""y"":465,""timestamp"":57994.30000001192},""timestamp"":57994.30000001192},{""type"":""chart_hover"",""data"":{""x"":1003,""y"":465,""timestamp"":58011},""timestamp"":58011},{""type"":""chart_hover"",""data"":{""x"":991,""y"":465,""timestamp"":58027.60000002384},""timestamp"":58027.60000002384},{""type"":""chart_hover"",""data"":{""x"":987,""y"":465,""timestamp"":58044.19999998808},""timestamp"":58044.19999998808},{""type"":""chart_hover"",""data"":{""x"":987,""y"":464,""timestamp"":58270.39999997616},""timestamp"":58270.39999997616},{""type"":""chart_hover"",""data"":{""x"":987,""y"":463,""timestamp"":58310.5},""timestamp"":58310.5},{""type"":""chart_hover"",""data"":{""x"":987,""y"":462,""timestamp"":58406.69999998808},""timestamp"":58406.80000001192},{""type"":""chart_hover"",""data"":{""x"":986,""y"":462,""timestamp"":58444.10000002384},""timestamp"":58444.10000002384},{""type"":""chart_hover"",""data"":{""x"":985,""y"":461,""timestamp"":58460.69999998808},""timestamp"":58460.69999998808},{""type"":""chart_hover"",""data"":{""x"":985,""y"":460,""timestamp"":58493.5},""timestamp"":58493.5},{""type"":""chart_hover"",""data"":{""x"":985,""y"":459,""timestamp"":58518.5},""timestamp"":58518.5},{""type"":""chart_hover"",""data"":{""x"":985,""y"":458,""timestamp"":58531.60000002384},""timestamp"":58531.69999998808},{""type"":""chart_hover"",""data"":{""x"":984,""y"":457,""timestamp"":58552.60000002384},""timestamp"":58552.60000002384},{""type"":""chart_hover"",""data"":{""x"":984,""y"":456,""timestamp"":58560.89999997616},""timestamp"":58560.89999997616},{""type"":""chart_hover"",""data"":{""x"":983,""y"":454,""timestamp"":58577.5},""timestamp"":58577.5},{""type"":""chart_hover"",""data"":{""x"":983,""y"":452,""timestamp"":58594.19999998808},""timestamp"":58594.19999998808},{""type"":""chart_hover"",""data"":{""x"":982,""y"":451,""timestamp"":58610.69999998808},""timestamp"":58610.69999998808},{""type"":""chart_hover"",""data"":{""x"":981,""y"":450,""timestamp"":58627.39999997616},""timestamp"":58627.39999997616},{""type"":""chart_hover"",""data"":{""x"":981,""y"":449,""timestamp"":58643.89999997616},""timestamp"":58643.89999997616},{""type"":""chart_hover"",""data"":{""x"":981,""y"":448,""timestamp"":58669.10000002384},""timestamp"":58669.10000002384},{""type"":""chart_hover"",""data"":{""x"":981,""y"":447,""timestamp"":58710.69999998808},""timestamp"":58710.69999998808},{""type"":""chart_hover"",""data"":{""x"":981,""y"":446,""timestamp"":58727.5},""timestamp"":58727.5},{""type"":""chart_hover"",""data"":{""x"":981,""y"":445,""timestamp"":58751.89999997616},""timestamp"":58751.89999997616},{""type"":""chart_hover"",""data"":{""x"":983,""y"":445,""timestamp"":59102.19999998808},""timestamp"":59102.19999998808},{""type"":""chart_hover"",""data"":{""x"":996,""y"":443,""timestamp"":59110.80000001192},""timestamp"":59110.80000001192},{""type"":""chart_hover"",""data"":{""x"":1017,""y"":440,""timestamp"":59127.69999998808},""timestamp"":59127.69999998808},{""type"":""chart_hover"",""data"":{""x"":1079,""y"":436,""timestamp"":59144.10000002384},""timestamp"":59144.10000002384},{""type"":""chart_hover"",""data"":{""x"":1105,""y"":432,""timestamp"":59161},""timestamp"":59161},{""type"":""chart_hover"",""data"":{""x"":1113,""y"":432,""timestamp"":59177.30000001192},""timestamp"":59177.30000001192},{""type"":""chart_hover"",""data"":{""x"":1110,""y"":432,""timestamp"":59344.10000002384},""timestamp"":59344.10000002384},{""type"":""chart_hover"",""data"":{""x"":1102,""y"":432,""timestamp"":59360.60000002384},""timestamp"":59360.60000002384},{""type"":""chart_hover"",""data"":{""x"":1092,""y"":432,""timestamp"":59377.39999997616},""timestamp"":59377.39999997616},{""type"":""chart_hover"",""data"":{""x"":1082,""y"":432,""timestamp"":59394.30000001192},""timestamp"":59394.30000001192},{""type"":""chart_hover"",""data"":{""x"":1070,""y"":432,""timestamp"":59410.89999997616},""timestamp"":59410.89999997616},{""type"":""chart_hover"",""data"":{""x"":1055,""y"":432,""timestamp"":59427.5},""timestamp"":59427.5},{""type"":""chart_hover"",""data"":{""x"":1039,""y"":432,""timestamp"":59444.5},""timestamp"":59444.5},{""type"":""chart_click"",""data"":{""x"":1039,""y"":432,""timestamp"":59446.80000001192},""timestamp"":59446.80000001192},{""type"":""chart_hover"",""data"":{""x"":1013,""y"":432,""timestamp"":59460.80000001192},""timestamp"":59460.80000001192},{""type"":""chart_hover"",""data"":{""x"":1000,""y"":432,""timestamp"":59477.30000001192},""timestamp"":59477.30000001192},{""type"":""chart_hover"",""data"":{""x"":997,""y"":432,""timestamp"":59494.5},""timestamp"":59494.5},{""type"":""chart_hover"",""data"":{""x"":992,""y"":432,""timestamp"":59511.19999998808},""timestamp"":59511.19999998808},{""type"":""chart_hover"",""data"":{""x"":990,""y"":432,""timestamp"":59527.39999997616},""timestamp"":59527.39999997616},{""type"":""chart_hover"",""data"":{""x"":989,""y"":432,""timestamp"":59544.30000001192},""timestamp"":59544.30000001192},{""type"":""chart_hover"",""data"":{""x"":988,""y"":432,""timestamp"":59560.80000001192},""timestamp"":59560.80000001192},{""type"":""chart_hover"",""data"":{""x"":987,""y"":433,""timestamp"":59577.69999998808},""timestamp"":59577.69999998808},{""type"":""chart_hover"",""data"":{""x"":986,""y"":433,""timestamp"":59594.10000002384},""timestamp"":59594.10000002384},{""type"":""chart_hover"",""data"":{""x"":985,""y"":433,""timestamp"":59610.80000001192},""timestamp"":59610.80000001192},{""type"":""chart_hover"",""data"":{""x"":984,""y"":434,""timestamp"":59627.60000002384},""timestamp"":59627.60000002384},{""type"":""chart_hover"",""data"":{""x"":983,""y"":434,""timestamp"":59644.19999998808},""timestamp"":59644.19999998808},{""type"":""chart_hover"",""data"":{""x"":981,""y"":434,""timestamp"":59660.60000002384},""timestamp"":59660.60000002384},{""type"":""chart_hover"",""data"":{""x"":971,""y"":435,""timestamp"":59677.39999997616},""timestamp"":59677.39999997616},{""type"":""chart_hover"",""data"":{""x"":958,""y"":435,""timestamp"":59694.19999998808},""timestamp"":59694.19999998808},{""type"":""chart_hover"",""data"":{""x"":952,""y"":435,""timestamp"":59710.80000001192},""timestamp"":59710.80000001192},{""type"":""chart_hover"",""data"":{""x"":951,""y"":435,""timestamp"":59727.5},""timestamp"":59727.5},{""type"":""chart_hover"",""data"":{""x"":949,""y"":435,""timestamp"":59744.19999998808},""timestamp"":59744.19999998808},{""type"":""chart_hover"",""data"":{""x"":950,""y"":435,""timestamp"":59981.60000002384},""timestamp"":59981.60000002384},{""type"":""chart_hover"",""data"":{""x"":952,""y"":435,""timestamp"":59994.30000001192},""timestamp"":59994.30000001192},{""type"":""chart_hover"",""data"":{""x"":965,""y"":435,""timestamp"":60011.5},""timestamp"":60011.5},{""type"":""chart_hover"",""data"":{""x"":992,""y"":435,""timestamp"":60027.60000002384},""timestamp"":60027.60000002384},{""type"":""chart_hover"",""data"":{""x"":1026,""y"":435,""timestamp"":60044.39999997616},""timestamp"":60044.39999997616},{""type"":""chart_hover"",""data"":{""x"":1071,""y"":435,""timestamp"":60060.89999997616},""timestamp"":60060.89999997616},{""type"":""chart_hover"",""data"":{""x"":1099,""y"":435,""timestamp"":60077.69999998808},""timestamp"":60077.69999998808},{""type"":""chart_hover"",""data"":{""x"":1102,""y"":435,""timestamp"":60094.39999997616},""timestamp"":60094.39999997616},{""type"":""chart_hover"",""data"":{""x"":1104,""y"":435,""timestamp"":60178.30000001192},""timestamp"":60178.30000001192},{""type"":""chart_hover"",""data"":{""x"":1114,""y"":438,""timestamp"":60194.19999998808},""timestamp"":60194.19999998808},{""type"":""chart_hover"",""data"":{""x"":1129,""y"":439,""timestamp"":60210.80000001192},""timestamp"":60210.80000001192},{""type"":""chart_hover"",""data"":{""x"":1147,""y"":442,""timestamp"":60227.69999998808},""timestamp"":60227.69999998808},{""type"":""chart_hover"",""data"":{""x"":1162,""y"":445,""timestamp"":60244.39999997616},""timestamp"":60244.39999997616},{""type"":""chart_hover"",""data"":{""x"":1170,""y"":446,""timestamp"":60261},""timestamp"":60261},{""type"":""chart_hover"",""data"":{""x"":1171,""y"":446,""timestamp"":60328.80000001192},""timestamp"":60328.80000001192},{""type"":""chart_hover"",""data"":{""x"":1178,""y"":450,""timestamp"":60360.69999998808},""timestamp"":60360.69999998808},{""type"":""chart_hover"",""data"":{""x"":1182,""y"":452,""timestamp"":60377.69999998808},""timestamp"":60377.69999998808},{""type"":""chart_hover"",""data"":{""x"":1184,""y"":453,""timestamp"":60394},""timestamp"":60394},{""type"":""chart_hover"",""data"":{""x"":1185,""y"":454,""timestamp"":60411.30000001192},""timestamp"":60411.30000001192},{""type"":""chart_hover"",""data"":{""x"":1186,""y"":456,""timestamp"":60427.5},""timestamp"":60427.5},{""type"":""chart_hover"",""data"":{""x"":1194,""y"":468,""timestamp"":60444},""timestamp"":60444},{""type"":""chart_hover"",""data"":{""x"":1203,""y"":478,""timestamp"":60461},""timestamp"":60461},{""type"":""chart_hover"",""data"":{""x"":1206,""y"":482,""timestamp"":60477.5},""timestamp"":60477.5},{""type"":""chart_hover"",""data"":{""x"":1222,""y"":494,""timestamp"":60494},""timestamp"":60494},{""type"":""chart_hover"",""data"":{""x"":1228,""y"":497,""timestamp"":60511.10000002384},""timestamp"":60511.10000002384},{""type"":""chart_hover"",""data"":{""x"":1229,""y"":497,""timestamp"":60527.69999998808},""timestamp"":60527.69999998808},{""type"":""chart_hover"",""data"":{""x"":1229,""y"":496,""timestamp"":60744.19999998808},""timestamp"":60744.19999998808},{""type"":""chart_hover"",""data"":{""x"":1229,""y"":495,""timestamp"":60760.69999998808},""timestamp"":60760.69999998808},{""type"":""chart_hover"",""data"":{""x"":1230,""y"":494,""timestamp"":60777.60000002384},""timestamp"":60777.60000002384},{""type"":""chart_hover"",""data"":{""x"":1230,""y"":491,""timestamp"":60794.5},""timestamp"":60794.5},{""type"":""chart_hover"",""data"":{""x"":1230,""y"":489,""timestamp"":60810.80000001192},""timestamp"":60810.80000001192},{""type"":""chart_hover"",""data"":{""x"":1231,""y"":487,""timestamp"":60827.39999997616},""timestamp"":60827.39999997616},{""type"":""chart_hover"",""data"":{""x"":1233,""y"":485,""timestamp"":60844.10000002384},""timestamp"":60844.10000002384},{""type"":""chart_hover"",""data"":{""x"":1234,""y"":485,""timestamp"":60861},""timestamp"":60861},{""type"":""chart_hover"",""data"":{""x"":1234,""y"":484,""timestamp"":60877.30000001192},""timestamp"":60877.30000001192},{""type"":""chart_hover"",""data"":{""x"":1236,""y"":483,""timestamp"":60894.19999998808},""timestamp"":60894.19999998808},{""type"":""chart_hover"",""data"":{""x"":1237,""y"":483,""timestamp"":61144.19999998808},""timestamp"":61144.19999998808},{""type"":""chart_hover"",""data"":{""x"":1238,""y"":483,""timestamp"":61194.19999998808},""timestamp"":61194.19999998808},{""type"":""chart_click"",""data"":{""x"":1238,""y"":483,""timestamp"":61292.80000001192},""timestamp"":61292.80000001192},{""type"":""chart_hover"",""data"":{""x"":1241,""y"":483,""timestamp"":61616},""timestamp"":61616},{""type"":""chart_click"",""data"":{""x"":1241,""y"":483,""timestamp"":61776},""timestamp"":61776},{""type"":""chart_hover"",""data"":{""x"":1241,""y"":483,""timestamp"":61794.89999997616},""timestamp"":61794.89999997616},{""type"":""chart_hover"",""data"":{""x"":1241,""y"":484,""timestamp"":62086.5},""timestamp"":62086.5},{""type"":""chart_hover"",""data"":{""x"":1241,""y"":485,""timestamp"":62127.19999998808},""timestamp"":62127.19999998808},{""type"":""chart_hover"",""data"":{""x"":1241,""y"":486,""timestamp"":62185.5},""timestamp"":62185.5},{""type"":""chart_hover"",""data"":{""x"":1241,""y"":487,""timestamp"":62241.89999997616},""timestamp"":62241.89999997616},{""type"":""chart_hover"",""data"":{""x"":1242,""y"":490,""timestamp"":62277.5},""timestamp"":62277.5},{""type"":""chart_hover"",""data"":{""x"":1242,""y"":489,""timestamp"":62437.19999998808},""timestamp"":62437.19999998808},{""type"":""chart_hover"",""data"":{""x"":1241,""y"":489,""timestamp"":62443.69999998808},""timestamp"":62443.69999998808},{""type"":""chart_hover"",""data"":{""x"":1238,""y"":488,""timestamp"":62460.80000001192},""timestamp"":62460.80000001192},{""type"":""chart_hover"",""data"":{""x"":1234,""y"":488,""timestamp"":62477.5},""timestamp"":62477.5},{""type"":""chart_hover"",""data"":{""x"":1232,""y"":487,""timestamp"":62494.5},""timestamp"":62494.5},{""type"":""chart_hover"",""data"":{""x"":1230,""y"":487,""timestamp"":62510.89999997616},""timestamp"":62510.89999997616},{""type"":""chart_hover"",""data"":{""x"":1229,""y"":486,""timestamp"":62533.39999997616},""timestamp"":62533.39999997616},{""type"":""chart_hover"",""data"":{""x"":1229,""y"":485,""timestamp"":62699},""timestamp"":62699},{""type"":""chart_hover"",""data"":{""x"":1229,""y"":484,""timestamp"":62724.69999998808},""timestamp"":62724.69999998808},{""type"":""chart_hover"",""data"":{""x"":1229,""y"":483,""timestamp"":62781.60000002384},""timestamp"":62781.60000002384},{""type"":""chart_hover"",""data"":{""x"":1231,""y"":483,""timestamp"":62794.19999998808},""timestamp"":62794.19999998808},{""type"":""chart_hover"",""data"":{""x"":1232,""y"":483,""timestamp"":62810.80000001192},""timestamp"":62810.80000001192},{""type"":""chart_hover"",""data"":{""x"":1232,""y"":482,""timestamp"":63013.10000002384},""timestamp"":63013.10000002384},{""type"":""chart_hover"",""data"":{""x"":1232,""y"":481,""timestamp"":63033.69999998808},""timestamp"":63033.69999998808},{""type"":""chart_hover"",""data"":{""x"":1232,""y"":480,""timestamp"":63053.30000001192},""timestamp"":63053.30000001192},{""type"":""chart_hover"",""data"":{""x"":1232,""y"":479,""timestamp"":63072.89999997616},""timestamp"":63072.89999997616},{""type"":""chart_hover"",""data"":{""x"":1232,""y"":478,""timestamp"":63110.5},""timestamp"":63110.5},{""type"":""chart_hover"",""data"":{""x"":1232,""y"":477,""timestamp"":63131.30000001192},""timestamp"":63131.30000001192},{""type"":""chart_hover"",""data"":{""x"":1232,""y"":476,""timestamp"":63153.69999998808},""timestamp"":63153.69999998808},{""type"":""chart_hover"",""data"":{""x"":1232,""y"":475,""timestamp"":63194.10000002384},""timestamp"":63194.10000002384},{""type"":""chart_hover"",""data"":{""x"":1232,""y"":474,""timestamp"":63210.69999998808},""timestamp"":63210.69999998808},{""type"":""chart_hover"",""data"":{""x"":1232,""y"":473,""timestamp"":63235.19999998808},""timestamp"":63235.19999998808},{""type"":""chart_hover"",""data"":{""x"":1232,""y"":472,""timestamp"":63246.5},""timestamp"":63246.5},{""type"":""chart_hover"",""data"":{""x"":1232,""y"":471,""timestamp"":63264},""timestamp"":63264},{""type"":""chart_hover"",""data"":{""x"":1232,""y"":470,""timestamp"":63290.30000001192},""timestamp"":63290.30000001192},{""type"":""chart_click"",""data"":{""x"":1232,""y"":470,""timestamp"":64152},""timestamp"":64152},{""type"":""chart_hover"",""data"":{""x"":1231,""y"":470,""timestamp"":64369.69999998808},""timestamp"":64369.69999998808},{""type"":""chart_hover"",""data"":{""x"":1230,""y"":470,""timestamp"":64385.10000002384},""timestamp"":64385.10000002384},{""type"":""chart_hover"",""data"":{""x"":1229,""y"":470,""timestamp"":64524.5},""timestamp"":64524.5},{""type"":""chart_hover"",""data"":{""x"":1228,""y"":470,""timestamp"":64535.30000001192},""timestamp"":64535.30000001192},{""type"":""chart_hover"",""data"":{""x"":1226,""y"":470,""timestamp"":64550.60000002384},""timestamp"":64550.60000002384},{""type"":""chart_hover"",""data"":{""x"":1225,""y"":470,""timestamp"":64560.5},""timestamp"":64560.5},{""type"":""chart_hover"",""data"":{""x"":1218,""y"":470,""timestamp"":64577.19999998808},""timestamp"":64577.19999998808},{""type"":""chart_hover"",""data"":{""x"":1207,""y"":469,""timestamp"":64594},""timestamp"":64594},{""type"":""chart_hover"",""data"":{""x"":1194,""y"":468,""timestamp"":64611.10000002384},""timestamp"":64611.10000002384},{""type"":""chart_hover"",""data"":{""x"":1184,""y"":466,""timestamp"":64627.60000002384},""timestamp"":64627.60000002384},{""type"":""chart_hover"",""data"":{""x"":1174,""y"":464,""timestamp"":64644.30000001192},""timestamp"":64644.30000001192},{""type"":""chart_hover"",""data"":{""x"":1158,""y"":462,""timestamp"":64660.89999997616},""timestamp"":64660.89999997616},{""type"":""chart_hover"",""data"":{""x"":1151,""y"":461,""timestamp"":64677.30000001192},""timestamp"":64677.30000001192},{""type"":""chart_hover"",""data"":{""x"":1133,""y"":459,""timestamp"":64694.10000002384},""timestamp"":64694.10000002384},{""type"":""chart_hover"",""data"":{""x"":1117,""y"":459,""timestamp"":64710.89999997616},""timestamp"":64710.89999997616},{""type"":""chart_hover"",""data"":{""x"":1096,""y"":459,""timestamp"":64727.39999997616},""timestamp"":64727.39999997616},{""type"":""chart_hover"",""data"":{""x"":1093,""y"":459,""timestamp"":64744.10000002384},""timestamp"":64744.10000002384},{""type"":""chart_hover"",""data"":{""x"":1092,""y"":459,""timestamp"":64793.80000001192},""timestamp"":64793.80000001192},{""type"":""chart_hover"",""data"":{""x"":1089,""y"":459,""timestamp"":64810.89999997616},""timestamp"":64810.89999997616},{""type"":""chart_hover"",""data"":{""x"":1078,""y"":459,""timestamp"":64827.69999998808},""timestamp"":64827.69999998808},{""type"":""chart_hover"",""data"":{""x"":1066,""y"":459,""timestamp"":64844.19999998808},""timestamp"":64844.19999998808},{""type"":""chart_hover"",""data"":{""x"":1055,""y"":459,""timestamp"":64861.10000002384},""timestamp"":64861.10000002384},{""type"":""chart_hover"",""data"":{""x"":1043,""y"":459,""timestamp"":64877.5},""timestamp"":64877.5},{""type"":""chart_hover"",""data"":{""x"":1034,""y"":460,""timestamp"":64894.10000002384},""timestamp"":64894.10000002384},{""type"":""chart_hover"",""data"":{""x"":1028,""y"":462,""timestamp"":64910.60000002384},""timestamp"":64910.60000002384},{""type"":""chart_hover"",""data"":{""x"":1027,""y"":462,""timestamp"":64927.60000002384},""timestamp"":64927.60000002384},{""type"":""chart_hover"",""data"":{""x"":1025,""y"":462,""timestamp"":64944.19999998808},""timestamp"":64944.19999998808},{""type"":""chart_hover"",""data"":{""x"":1021,""y"":463,""timestamp"":64960.89999997616},""timestamp"":64960.89999997616},{""type"":""chart_hover"",""data"":{""x"":1018,""y"":465,""timestamp"":64977.60000002384},""timestamp"":64977.60000002384},{""type"":""chart_hover"",""data"":{""x"":1014,""y"":466,""timestamp"":64994.30000001192},""timestamp"":64994.30000001192},{""type"":""chart_hover"",""data"":{""x"":1010,""y"":466,""timestamp"":65010.69999998808},""timestamp"":65010.69999998808},{""type"":""chart_hover"",""data"":{""x"":1007,""y"":467,""timestamp"":65027.80000001192},""timestamp"":65027.80000001192},{""type"":""chart_hover"",""data"":{""x"":1006,""y"":467,""timestamp"":65044.19999998808},""timestamp"":65044.19999998808},{""type"":""chart_hover"",""data"":{""x"":1005,""y"":467,""timestamp"":65060.89999997616},""timestamp"":65060.89999997616},{""type"":""chart_hover"",""data"":{""x"":1002,""y"":467,""timestamp"":65110.69999998808},""timestamp"":65110.80000001192},{""type"":""chart_hover"",""data"":{""x"":994,""y"":467,""timestamp"":65127.19999998808},""timestamp"":65127.19999998808},{""type"":""chart_hover"",""data"":{""x"":983,""y"":467,""timestamp"":65143.89999997616},""timestamp"":65143.89999997616},{""type"":""chart_hover"",""data"":{""x"":971,""y"":467,""timestamp"":65160.89999997616},""timestamp"":65160.89999997616},{""type"":""chart_hover"",""data"":{""x"":963,""y"":467,""timestamp"":65177.69999998808},""timestamp"":65177.69999998808},{""type"":""chart_hover"",""data"":{""x"":962,""y"":467,""timestamp"":65194.10000002384},""timestamp"":65194.10000002384},{""type"":""chart_hover"",""data"":{""x"":963,""y"":467,""timestamp"":65326.30000001192},""timestamp"":65326.30000001192},{""type"":""chart_hover"",""data"":{""x"":964,""y"":467,""timestamp"":65344.80000001192},""timestamp"":65344.80000001192},{""type"":""chart_hover"",""data"":{""x"":968,""y"":466,""timestamp"":65362.10000002384},""timestamp"":65362.10000002384},{""type"":""chart_hover"",""data"":{""x"":975,""y"":463,""timestamp"":65377.80000001192},""timestamp"":65377.80000001192},{""type"":""chart_hover"",""data"":{""x"":985,""y"":462,""timestamp"":65393.89999997616},""timestamp"":65393.89999997616},{""type"":""chart_hover"",""data"":{""x"":988,""y"":462,""timestamp"":65410.80000001192},""timestamp"":65410.80000001192},{""type"":""chart_hover"",""data"":{""x"":989,""y"":462,""timestamp"":65427.5},""timestamp"":65427.5},{""type"":""chart_hover"",""data"":{""x"":990,""y"":462,""timestamp"":65584.69999998808},""timestamp"":65584.69999998808},{""type"":""chart_hover"",""data"":{""x"":991,""y"":463,""timestamp"":65593.80000001192},""timestamp"":65593.80000001192},{""type"":""chart_hover"",""data"":{""x"":992,""y"":465,""timestamp"":65610.5},""timestamp"":65610.5},{""type"":""chart_hover"",""data"":{""x"":995,""y"":468,""timestamp"":65627.30000001192},""timestamp"":65627.30000001192},{""type"":""chart_hover"",""data"":{""x"":996,""y"":469,""timestamp"":65644.10000002384},""timestamp"":65644.10000002384},{""type"":""chart_hover"",""data"":{""x"":996,""y"":470,""timestamp"":65736.39999997616},""timestamp"":65736.39999997616},{""type"":""chart_hover"",""data"":{""x"":996,""y"":471,""timestamp"":65750.10000002384},""timestamp"":65750.10000002384},{""type"":""chart_hover"",""data"":{""x"":996,""y"":472,""timestamp"":65760.69999998808},""timestamp"":65760.69999998808},{""type"":""chart_hover"",""data"":{""x"":995,""y"":473,""timestamp"":65777.39999997616},""timestamp"":65777.39999997616},{""type"":""chart_hover"",""data"":{""x"":994,""y"":474,""timestamp"":65794.19999998808},""timestamp"":65794.19999998808},{""type"":""chart_hover"",""data"":{""x"":993,""y"":475,""timestamp"":65823.10000002384},""timestamp"":65823.10000002384},{""type"":""chart_hover"",""data"":{""x"":992,""y"":475,""timestamp"":65837},""timestamp"":65837},{""type"":""chart_hover"",""data"":{""x"":991,""y"":476,""timestamp"":65847},""timestamp"":65847},{""type"":""chart_hover"",""data"":{""x"":990,""y"":476,""timestamp"":65864.89999997616},""timestamp"":65864.89999997616},{""type"":""chart_hover"",""data"":{""x"":989,""y"":477,""timestamp"":65877.60000002384},""timestamp"":65877.60000002384},{""type"":""chart_hover"",""data"":{""x"":988,""y"":477,""timestamp"":65896},""timestamp"":65896},{""type"":""chart_hover"",""data"":{""x"":987,""y"":477,""timestamp"":65944},""timestamp"":65944},{""type"":""chart_hover"",""data"":{""x"":985,""y"":477,""timestamp"":66068.19999998808},""timestamp"":66068.19999998808},{""type"":""chart_hover"",""data"":{""x"":984,""y"":477,""timestamp"":66077.80000001192},""timestamp"":66077.80000001192},{""type"":""chart_hover"",""data"":{""x"":981,""y"":478,""timestamp"":66094},""timestamp"":66094},{""type"":""chart_hover"",""data"":{""x"":979,""y"":479,""timestamp"":66110.80000001192},""timestamp"":66110.80000001192},{""type"":""chart_hover"",""data"":{""x"":978,""y"":479,""timestamp"":66127.5},""timestamp"":66127.5},{""type"":""chart_hover"",""data"":{""x"":978,""y"":476,""timestamp"":66270.30000001192},""timestamp"":66270.30000001192},{""type"":""chart_hover"",""data"":{""x"":978,""y"":473,""timestamp"":66280.10000002384},""timestamp"":66280.10000002384},{""type"":""chart_hover"",""data"":{""x"":978,""y"":472,""timestamp"":66294.10000002384},""timestamp"":66294.10000002384},{""type"":""chart_hover"",""data"":{""x"":978,""y"":462,""timestamp"":66310.5},""timestamp"":66310.5},{""type"":""chart_hover"",""data"":{""x"":978,""y"":448,""timestamp"":66327.19999998808},""timestamp"":66327.19999998808},{""type"":""chart_hover"",""data"":{""x"":978,""y"":438,""timestamp"":66344},""timestamp"":66344},{""type"":""chart_hover"",""data"":{""x"":978,""y"":429,""timestamp"":66360.89999997616},""timestamp"":66360.89999997616},{""type"":""chart_hover"",""data"":{""x"":978,""y"":425,""timestamp"":66377.39999997616},""timestamp"":66377.39999997616},{""type"":""chart_hover"",""data"":{""x"":978,""y"":422,""timestamp"":66394.39999997616},""timestamp"":66394.39999997616},{""type"":""chart_hover"",""data"":{""x"":978,""y"":420,""timestamp"":66411},""timestamp"":66411},{""type"":""chart_hover"",""data"":{""x"":978,""y"":419,""timestamp"":66437.69999998808},""timestamp"":66437.69999998808},{""type"":""chart_hover"",""data"":{""x"":979,""y"":417,""timestamp"":66724.60000002384},""timestamp"":66724.60000002384},{""type"":""chart_hover"",""data"":{""x"":980,""y"":416,""timestamp"":66733.60000002384},""timestamp"":66733.60000002384},{""type"":""chart_hover"",""data"":{""x"":984,""y"":414,""timestamp"":66743.89999997616},""timestamp"":66743.89999997616},{""type"":""chart_hover"",""data"":{""x"":999,""y"":408,""timestamp"":66760.60000002384},""timestamp"":66760.60000002384},{""type"":""chart_hover"",""data"":{""x"":1023,""y"":404,""timestamp"":66777.5},""timestamp"":66777.5},{""type"":""chart_hover"",""data"":{""x"":1061,""y"":396,""timestamp"":66794.30000001192},""timestamp"":66794.30000001192},{""type"":""chart_hover"",""data"":{""x"":1094,""y"":391,""timestamp"":66810.80000001192},""timestamp"":66810.80000001192},{""type"":""chart_hover"",""data"":{""x"":1112,""y"":390,""timestamp"":66827.69999998808},""timestamp"":66827.69999998808},{""type"":""chart_hover"",""data"":{""x"":1115,""y"":390,""timestamp"":66844.19999998808},""timestamp"":66844.19999998808},{""type"":""chart_hover"",""data"":{""x"":1121,""y"":390,""timestamp"":66910.80000001192},""timestamp"":66910.80000001192},{""type"":""chart_hover"",""data"":{""x"":1144,""y"":392,""timestamp"":66927.60000002384},""timestamp"":66927.60000002384},{""type"":""chart_hover"",""data"":{""x"":1182,""y"":393,""timestamp"":66944.19999998808},""timestamp"":66944.19999998808},{""type"":""chart_hover"",""data"":{""x"":1220,""y"":393,""timestamp"":66960.89999997616},""timestamp"":66960.89999997616},{"