city_a_estimate,city_b_estimate,click_events,comprehension_ease,condition,condition_id,condition_name,confidence_label,confidence_rating,data_trust,display_format,end_time,failed_audio,failed_images,failed_video,hover_events,interaction_log,internal_node_id,participant_id,percent_score,phase,phase1_complete,phase2_complete,predictions_shown,probability_estimate,question_order,response,responses,round,rt,rt_total,skeptical_rating,slider_moved,start_time,stimulus,success,time_elapsed,time_on_viz,timeout,total_interactions,total_questions,total_score,travel_choice,trial_index,trial_type,trust_composite,usability_composite,usability_difficulty,view_history,visualization_literacy_score,visualization_shown
,,,,,,,,,,,,"[]","[]","[]",,,0.0-0.0,676c45d92368330a2c254895,,,,,,,,,,,,,,,,,true,599,,false,,,,,0,preload,,,,,,
,,,,,,,,,,,,,,,,,0.0-1.0,676c45d92368330a2c254895,,,,,,,,0,,,12198,,,,,"
	        <div class=""welcome-screen"">
	            <h1>Air Quality Prediction Study</h1>
	            <p>Welcome! You are about to participate in a research study about how people make decisions using air quality predictions. This study examines how different ways of presenting prediction information affect trust and decision-making. The study will take approximately 15 minutes.</p>
	            <div class=""study-info"">
	                <h3>What you'll do:</h3>
	                <ul>
	                    <li>Complete a brief assessment of visualization understanding</li>
	                    <li>Make predictions about air quality in two cities</li>
	                    <li>Answer questions about your confidence and trust</li>
						<li>Report basic demographic data</li>
	                </ul>
	            </div>
	        </div>
	    ",,12800,,,,,,,1,html-button-response,,,,,,
,,,,,,,,,,,,,,,,,0.0-2.0,676c45d92368330a2c254895,,,,,,,,,,,37822,,,,,,true,51625,,,,,,,2,fullscreen,,,,,,
,,,,,,,,,,,,,,,,,0.0-3.0,676c45d92368330a2c254895,,,,,,,,"{""participant_id"":""676c45d92368330a2c254895""}",,,8510,,,,,,,60145,,,,,,,3,survey-text,,,,,,
,,,,,,,,,,,,,,,,,0.0-4.0,676c45d92368330a2c254895,,,,,,,,0,,,64605,,,,,"
	        <div class=""consent-form"">
	            <h2>Consent Form</h2>
	            <div class=""consent-header"">
	                <p><strong>Principal Investigator:</strong> Dr. Cindy Xiong Bearfield, Assistant Professor</p>
	                <p><strong>Study Title:</strong> Trusting What We See: Effect of Interactivity in Visual Data Analysis</p>
	                <p><strong>Supported By:</strong> Georgia Institute of Technology</p>
	            </div>
	            
	            <div class=""consent-details"">
	                <h3>WHAT IS THIS FORM?</h3>
	                <p>This form is called a Consent Form. It will give you information about the study so you can make an informed decision about participation in this research. We encourage you to take some time to think this over and ask questions now and at any other time. If you decide to participate, you will be asked to sign this form and you will be given a copy for your records.</p>

	                <h3>WHAT ARE SOME OF THE IMPORTANT ASPECTS OF THIS RESEARCH STUDY THAT I SHOULD BE AWARE OF?</h3>
	                <ul>
	                    <li>Whether or not you take part is up to you.</li>
	                    <li>You can choose not to take part.</li>
	                    <li>You can agree to take part and later change your mind.</li>
	                    <li>Your decision will not be held against you.</li>
	                </ul>

	                <h3>WHY ARE WE DOING THIS RESEARCH STUDY?</h3>
	                <p>The purpose of our study is to explore the visualization design space so we can understand how people perceive, interpret, and make decisions from visualizations. The results from this study can help us design visualizations and visualization guidelines to help people better communicate and understand data.</p>

	                <h3>WHO CAN PARTICIPATE IN THIS RESEARCH STUDY?</h3>
	                <p>Participants in this study must be at least 18 years of age or older and have general familiarity with using web-based systems. Participants currently outside of the U.S. cannot participate in this study (e.g. in the European Union or China).</p>

	                <h3>WHAT COMPENSATION I WILL RECEIVE?</h3>
	                <p>You will receive payment through Prolific worth $12/hour for participating in this study. We expect this study to take less than 20 minutes. Your participation is entirely voluntary. You are free to withdraw at any time, and if you do, you will receive partial payment for your time.</p>

	                <h3>HOW MANY PEOPLE WILL PARTICIPATE?</h3>
	                <p>We expect about 200 people will be in this research study.</p>

	                <h3>WHAT WILL I BE ASKED TO DO AND HOW MUCH TIME WILL IT TAKE?</h3>
	                <p>We will show you several data visualizations or components of a visualization and ask you to perform a visual task with the visualization on a computer screen, such as counting, searching, recognizing, memorizing, or describing the information presented to you. We may also ask you to fill out questionnaires concerning your thoughts regarding the visualization you saw. We expect that you will be in this research study to take between 15 and 60 minutes. We expect this study to be a one-off session and will not contact you regarding the study itself in the future.</p>

	                <h3>WILL BEING IN THIS RESEARCH STUDY HELP ME IN ANY WAY?</h3>
	                <p>You are not likely to have any direct benefit from being in this research study. The potential benefits to you from participation may include learning about how data visualization research is conducted, and you may learn about issues of current interest in data visualization and psychology.</p>

	                <h3>WHAT ARE MY RISKS OF BEING IN THIS RESEARCH STUDY?</h3>
	                <p>Your participation in this study does not involve any risks other than what you would encounter in daily life. In particular, you may experience fatigue or boredom, however, you may take breaks between tasks. The effects of participating should be comparable to those you would experience from viewing a computer monitor and using a keyboard. You may withdraw at any time.</p>

	                <h3>HOW WILL MY PERSONAL INFORMATION BE PROTECTED?</h3>
	                <p>We will comply with any applicable laws and regulations regarding confidentiality. To make sure that this research is being carried out in the proper way, the Georgia Institute of Technology IRB may review study records. The Office of Human Research Protections may also look at study records.</p>
	                <p>Efforts will be made to limit the use and disclosure of your personal information, including research study records, to people who need to review this information. We cannot promise complete secrecy. Organizations that may inspect and copy your information include the IRB and other representatives of this institution. Please be notified that our data privacy policy is based on U.S. regulations. Participants who are out of the U.S. might be excluded due to different data privacy requirements.</p>
	                <p><strong>Data Sharing:</strong> De-identified data from this study will be shared among the GATech research team, as well as the research community at large to advance science and health. We will remove or code any personal information that could identify you before files are shared with other researchers to ensure that, by current scientific standards and known methods, no one will be able to identify you from the information we share. Despite these measures, we cannot guarantee the anonymity of your personal data.</p>

	                <h3>WILL I BE GIVEN ANY MONEY OR OTHER COMPENSATION FOR BEING IN THIS RESEARCH STUDY?</h3>
	                <p>If you agree to take part in this research study, we will provide compensation. You will be paid in accordance with the stated policies of Amazon Mechanical Turk and/or Prolific.com. Payment will be made upon completion and acceptance of tasks that you have agreed to complete and you will be paid via Mechanical Turk or Prolific.com. If you choose to withdraw from the study, you will not be compensated for your participation.</p>

	                <h3>WHAT ELSE DO I NEED TO KNOW?</h3>
	                <p>We might be using attention check questions in our surveys. If you miss 2 or more attention check questions, your HIT will not be accepted and you will not be compensated.</p>

	                <h3>WHO CAN I TALK TO IF I HAVE QUESTIONS?</h3>
	                <p>If you have any questions about the content of this research project, you may contact Dr. Cindy Xiong Bearfield at cxiong@gatech.edu, or contact Songwen Hu at shu343@gatech.edu. If you have any questions about your rights as a research subject, you may also contact Georgia Institute of Technology Office of Research Integrity Assurance at IRB@gatech.edu.</p>

	                <h3>WHAT HAPPENS IF I SAY YES, BUT I CHANGE MY MIND LATER?</h3>
	                <p>You can decide not to participate in this research or you can start and then decide to leave the research at any time and it will not be held against you. To do so, simply exit the experiment. Any data already collected will not be saved.</p>

	                <p><strong>By clicking ""I agree"" below you are indicating that you are at least 18 years old, currently in the U.S., have read this consent form, and agree to participate in this research study. Please print a copy of this page for your records.</strong></p>
	            </div>
	        </div>
	    ",,124752,,,,,,,4,html-button-response,,,,,,
,,,,,,,,,,,,,,,,,0.0-5.0,676c45d92368330a2c254895,,,,,,,,0,,,15013,,,,,"
	        <div class=""vis-literacy-intro"">
	            <h2>Visualization Assessment</h2>
	            <p>Before we begin the main study, we'd like to assess your ability to read and interpret data visualizations.</p>
	            
	            <div class=""assessment-info"">
	                <h3>What you'll do:</h3>
	                <ul>
	                    <li>View 12 different data visualizations (charts and graphs)</li>
	                    <li>Answer questions about what each visualization shows</li>
	                    <li>Take your time to examine each chart carefully</li>
	                </ul>
	                
	                <p><strong>This assessment will take approximately 5-10 minutes.</strong></p>
	                <p>There are no right or wrong interpretations - we're interested in how you read visualizations.</p>
	            </div>
	        </div>
	    ",,139767,,,,,,,5,html-button-response,,,,,,
,,,,,condition_8_bad,Bad Control,,,,,,,,,,,0.0-6.0,676c45d92368330a2c254895,83,,,,,,,,"[{""question_id"":""minivlat_1"",""question_type"":""treemap"",""question_text"":""eBay is nested in the Software category."",""response"":1,""correct_answer"":1,""is_correct"":true,""rt"":19262.10000000149},{""question_id"":""minivlat_2"",""question_type"":""stacked_100_bar"",""question_text"":""Which country has the lowest proportion of Gold medals?"",""response"":1,""correct_answer"":1,""is_correct"":true,""rt"":20415.79999999702},{""question_id"":""minivlat_3"",""question_type"":""histogram"",""question_text"":""What distance have customers traveled the most?"",""response"":1,""correct_answer"":1,""is_correct"":true,""rt"":12735.79999999702},{""question_id"":""minivlat_4"",""question_type"":""choropleth"",""question_text"":""In 2020, the unemployment rate for Washington (WA) was higher than that of Wisconsin (WI)."",""response"":0,""correct_answer"":0,""is_correct"":true,""rt"":21351.90000000596},{""question_id"":""minivlat_5"",""question_type"":""pie_chart"",""question_text"":""What is the approximate global smartphone market share of Samsung?"",""response"":0,""correct_answer"":0,""is_correct"":true,""rt"":20903.89999999851},{""question_id"":""minivlat_6"",""question_type"":""bubble_chart"",""question_text"":""Which has the largest number of metro stations?"",""response"":1,""correct_answer"":1,""is_correct"":true,""rt"":48967.60000000149},{""question_id"":""minivlat_7"",""question_type"":""stacked_bar"",""question_text"":""What is the cost of peanuts in Seoul?"",""response"":2,""correct_answer"":1,""is_correct"":false,""rt"":63888.09999999404},{""question_id"":""minivlat_8"",""question_type"":""line_chart"",""question_text"":""What was the price of a barrel of oil in February 2020?"",""response"":0,""correct_answer"":0,""is_correct"":true,""rt"":33711.5},{""question_id"":""minivlat_9"",""question_type"":""bar_chart"",""question_text"":""What is the average internet speed in Japan?"",""response"":1,""correct_answer"":1,""is_correct"":true,""rt"":33831.40000000596},{""question_id"":""minivlat_10"",""question_type"":""area_chart"",""question_text"":""What was the average price of a pound of coffee in October 2019?"",""response"":2,""correct_answer"":0,""is_correct"":false,""rt"":92792.09999999404},{""question_id"":""minivlat_11"",""question_type"":""stacked_area"",""question_text"":""What was the ratio of girls named \""Isla\"" to girls named \""Amelia\"" in 2012 in the UK?"",""response"":1,""correct_answer"":1,""is_correct"":true,""rt"":97391.90000000596},{""question_id"":""minivlat_12"",""question_type"":""scatter_plot"",""question_text"":""There is a negative relationship between the height and weight of the 85 males."",""response"":1,""correct_answer"":1,""is_correct"":true,""rt"":12927.59999999404}]",,,478179.69999999553,,,,,,617950,,,,12,10,,6,vis-literacy,,,,,,
,,,,,,,,,,,,,,,,,0.0-7.0,676c45d92368330a2c254895,,,,,,,,,,,20006,,,,,,,637958,,,,,,,7,instructions,,,,"[{""page_index"":0,""viewing_time"":20006}]",,
81,90,,,,condition_0_historical,Historical Only,Neutral,4,,historical_only,,,,,,"[{""type"":""chart_enter"",""data"":{""timestamp"":705.9000000059605},""timestamp"":706},{""type"":""chart_hover"",""data"":{""x"":602,""y"":399,""timestamp"":706.1000000014901},""timestamp"":706.1000000014901},{""type"":""chart_hover"",""data"":{""x"":598,""y"":401,""timestamp"":722.7000000029802},""timestamp"":722.7000000029802},{""type"":""chart_hover"",""data"":{""x"":590,""y"":403,""timestamp"":739},""timestamp"":739.1000000014901},{""type"":""chart_hover"",""data"":{""x"":581,""y"":404,""timestamp"":755.9000000059605},""timestamp"":755.9000000059605},{""type"":""chart_hover"",""data"":{""x"":564,""y"":404,""timestamp"":772.6000000014901},""timestamp"":772.6000000014901},{""type"":""chart_hover"",""data"":{""x"":545,""y"":404,""timestamp"":789.6000000014901},""timestamp"":789.6000000014901},{""type"":""chart_hover"",""data"":{""x"":525,""y"":404,""timestamp"":807.4000000059605},""timestamp"":807.5},{""type"":""chart_hover"",""data"":{""x"":508,""y"":406,""timestamp"":823.1000000014901},""timestamp"":823.1000000014901},{""type"":""chart_hover"",""data"":{""x"":496,""y"":408,""timestamp"":840},""timestamp"":840},{""type"":""chart_hover"",""data"":{""x"":485,""y"":412,""timestamp"":856.6000000014901},""timestamp"":856.7000000029802},{""type"":""chart_hover"",""data"":{""x"":478,""y"":414,""timestamp"":873.1000000014901},""timestamp"":873.1000000014901},{""type"":""chart_hover"",""data"":{""x"":472,""y"":418,""timestamp"":889.4000000059605},""timestamp"":889.4000000059605},{""type"":""chart_hover"",""data"":{""x"":466,""y"":420,""timestamp"":906.3000000044703},""timestamp"":906.3000000044703},{""type"":""chart_hover"",""data"":{""x"":462,""y"":424,""timestamp"":923.4000000059605},""timestamp"":923.4000000059605},{""type"":""chart_hover"",""data"":{""x"":458,""y"":426,""timestamp"":940.6000000014901},""timestamp"":940.6000000014901},{""type"":""chart_hover"",""data"":{""x"":454,""y"":430,""timestamp"":956.8000000044703},""timestamp"":956.8000000044703},{""type"":""chart_hover"",""data"":{""x"":449,""y"":435,""timestamp"":973.2000000029802},""timestamp"":973.3000000044703},{""type"":""chart_hover"",""data"":{""x"":445,""y"":440,""timestamp"":989.9000000059605},""timestamp"":989.9000000059605},{""type"":""chart_hover"",""data"":{""x"":438,""y"":449,""timestamp"":1007},""timestamp"":1007},{""type"":""chart_hover"",""data"":{""x"":431,""y"":458,""timestamp"":1023.2000000029802},""timestamp"":1023.2000000029802},{""type"":""chart_hover"",""data"":{""x"":415,""y"":474,""timestamp"":1053.3000000044703},""timestamp"":1053.3000000044703},{""type"":""chart_hover"",""data"":{""x"":410,""y"":478,""timestamp"":1055.6000000014901},""timestamp"":1055.6000000014901},{""type"":""chart_hover"",""data"":{""x"":401,""y"":486,""timestamp"":1072.7000000029802},""timestamp"":1072.7000000029802},{""type"":""chart_hover"",""data"":{""x"":394,""y"":492,""timestamp"":1090},""timestamp"":1090},{""type"":""chart_hover"",""data"":{""x"":384,""y"":498,""timestamp"":1105.7000000029802},""timestamp"":1105.7000000029802},{""type"":""chart_hover"",""data"":{""x"":375,""y"":503,""timestamp"":1122.4000000059605},""timestamp"":1122.4000000059605},{""type"":""chart_hover"",""data"":{""x"":364,""y"":508,""timestamp"":1139.2000000029802},""timestamp"":1139.2000000029802},{""type"":""chart_hover"",""data"":{""x"":354,""y"":512,""timestamp"":1156.1000000014901},""timestamp"":1156.1000000014901},{""type"":""chart_hover"",""data"":{""x"":344,""y"":514,""timestamp"":1172.7000000029802},""timestamp"":1172.7000000029802},{""type"":""chart_hover"",""data"":{""x"":332,""y"":518,""timestamp"":1189.5},""timestamp"":1189.5},{""type"":""chart_hover"",""data"":{""x"":325,""y"":521,""timestamp"":1206.9000000059605},""timestamp"":1206.9000000059605},{""type"":""chart_hover"",""data"":{""x"":322,""y"":522,""timestamp"":1223.1000000014901},""timestamp"":1223.1000000014901},{""type"":""chart_hover"",""data"":{""x"":320,""y"":523,""timestamp"":1239.6000000014901},""timestamp"":1239.6000000014901},{""type"":""chart_hover"",""data"":{""x"":319,""y"":523,""timestamp"":1256.4000000059605},""timestamp"":1256.4000000059605},{""type"":""chart_hover"",""data"":{""x"":320,""y"":523,""timestamp"":1569},""timestamp"":1569},{""type"":""chart_hover"",""data"":{""x"":320,""y"":522,""timestamp"":1577.1000000014901},""timestamp"":1577.1000000014901},{""type"":""chart_hover"",""data"":{""x"":322,""y"":522,""timestamp"":1599.8000000044703},""timestamp"":1599.8000000044703},{""type"":""chart_hover"",""data"":{""x"":323,""y"":521,""timestamp"":1639.9000000059605},""timestamp"":1639.9000000059605},{""type"":""chart_hover"",""data"":{""x"":324,""y"":520,""timestamp"":1656.4000000059605},""timestamp"":1656.4000000059605},{""type"":""chart_hover"",""data"":{""x"":326,""y"":520,""timestamp"":1688},""timestamp"":1688},{""type"":""chart_hover"",""data"":{""x"":326,""y"":519,""timestamp"":1704.2000000029802},""timestamp"":1704.2000000029802},{""type"":""chart_hover"",""data"":{""x"":326,""y"":518,""timestamp"":1712.9000000059605},""timestamp"":1712.9000000059605},{""type"":""chart_hover"",""data"":{""x"":328,""y"":518,""timestamp"":1722.8000000044703},""timestamp"":1722.8000000044703},{""type"":""chart_hover"",""data"":{""x"":330,""y"":516,""timestamp"":1739.8000000044703},""timestamp"":1739.8000000044703},{""type"":""chart_hover"",""data"":{""x"":332,""y"":515,""timestamp"":1756.8000000044703},""timestamp"":1756.9000000059605},{""type"":""chart_hover"",""data"":{""x"":334,""y"":514,""timestamp"":1773.5},""timestamp"":1773.5},{""type"":""chart_hover"",""data"":{""x"":335,""y"":513,""timestamp"":1789.9000000059605},""timestamp"":1789.9000000059605},{""type"":""chart_hover"",""data"":{""x"":338,""y"":512,""timestamp"":1806.7000000029802},""timestamp"":1806.7000000029802},{""type"":""chart_hover"",""data"":{""x"":343,""y"":510,""timestamp"":1823},""timestamp"":1823},{""type"":""chart_hover"",""data"":{""x"":352,""y"":507,""timestamp"":1839.7000000029802},""timestamp"":1839.7000000029802},{""type"":""chart_hover"",""data"":{""x"":364,""y"":502,""timestamp"":1856.2000000029802},""timestamp"":1856.2000000029802},{""type"":""chart_hover"",""data"":{""x"":382,""y"":496,""timestamp"":1872.8000000044703},""timestamp"":1872.8000000044703},{""type"":""chart_hover"",""data"":{""x"":394,""y"":488,""timestamp"":1889.5},""timestamp"":1889.5},{""type"":""chart_hover"",""data"":{""x"":408,""y"":482,""timestamp"":1906.6000000014901},""timestamp"":1906.6000000014901},{""type"":""chart_hover"",""data"":{""x"":422,""y"":473,""timestamp"":1923.2000000029802},""timestamp"":1923.2000000029802},{""type"":""chart_hover"",""data"":{""x"":439,""y"":460,""timestamp"":1939.7000000029802},""timestamp"":1939.7000000029802},{""type"":""chart_hover"",""data"":{""x"":461,""y"":440,""timestamp"":1956.7000000029802},""timestamp"":1956.7000000029802},{""type"":""chart_hover"",""data"":{""x"":490,""y"":418,""timestamp"":1973.1000000014901},""timestamp"":1973.1000000014901},{""type"":""chart_hover"",""data"":{""x"":527,""y"":387,""timestamp"":1989.8000000044703},""timestamp"":1989.8000000044703},{""type"":""chart_hover"",""data"":{""x"":572,""y"":352,""timestamp"":2006.4000000059605},""timestamp"":2006.4000000059605},{""type"":""chart_hover"",""data"":{""x"":625,""y"":311,""timestamp"":2023},""timestamp"":2023},{""type"":""chart_hover"",""data"":{""x"":681,""y"":268,""timestamp"":2039.5},""timestamp"":2039.5},{""type"":""chart_hover"",""data"":{""x"":768,""y"":206,""timestamp"":2056.10000000149},""timestamp"":2056.10000000149},{""type"":""chart_hover"",""data"":{""x"":832,""y"":167,""timestamp"":2072.9000000059605},""timestamp"":2072.9000000059605},{""type"":""chart_hover"",""data"":{""x"":896,""y"":132,""timestamp"":2089.5},""timestamp"":2089.5},{""type"":""chart_hover"",""data"":{""x"":950,""y"":107,""timestamp"":2106.3000000044703},""timestamp"":2106.3000000044703},{""type"":""chart_leave"",""data"":{""timestamp"":2123.10000000149},""timestamp"":2123.2000000029802},{""type"":""chart_enter"",""data"":{""timestamp"":2440.5},""timestamp"":2440.5},{""type"":""chart_hover"",""data"":{""x"":385,""y"":143,""timestamp"":2440.5},""timestamp"":2440.5},{""type"":""chart_hover"",""data"":{""x"":417,""y"":199,""timestamp"":2456.10000000149},""timestamp"":2456.10000000149},{""type"":""chart_hover"",""data"":{""x"":462,""y"":276,""timestamp"":2472.5},""timestamp"":2472.5},{""type"":""chart_hover"",""data"":{""x"":504,""y"":354,""timestamp"":2489.2000000029802},""timestamp"":2489.2000000029802},{""type"":""chart_hover"",""data"":{""x"":538,""y"":412,""timestamp"":2505.9000000059605},""timestamp"":2505.9000000059605},{""type"":""chart_hover"",""data"":{""x"":554,""y"":448,""timestamp"":2522.5},""timestamp"":2522.5},{""type"":""chart_hover"",""data"":{""x"":560,""y"":466,""timestamp"":2539.3000000044703},""timestamp"":2539.3000000044703},{""type"":""chart_hover"",""data"":{""x"":564,""y"":481,""timestamp"":2556.10000000149},""timestamp"":2556.10000000149},{""type"":""chart_hover"",""data"":{""x"":570,""y"":494,""timestamp"":2572.5},""timestamp"":2572.5},{""type"":""chart_hover"",""data"":{""x"":578,""y"":510,""timestamp"":2588.60000000149},""timestamp"":2588.60000000149},{""type"":""chart_hover"",""data"":{""x"":586,""y"":526,""timestamp"":2605.5},""timestamp"":2605.5},{""type"":""chart_hover"",""data"":{""x"":593,""y"":540,""timestamp"":2622.3000000044703},""timestamp"":2622.3000000044703},{""type"":""chart_hover"",""data"":{""x"":598,""y"":552,""timestamp"":2638.7000000029802},""timestamp"":2638.7000000029802},{""type"":""chart_leave"",""data"":{""timestamp"":2655.5},""timestamp"":2655.5},{""type"":""chart_enter"",""data"":{""timestamp"":5555.30000000447},""timestamp"":5555.30000000447},{""type"":""chart_hover"",""data"":{""x"":783,""y"":518,""timestamp"":5555.30000000447},""timestamp"":5555.30000000447},{""type"":""chart_hover"",""data"":{""x"":846,""y"":436,""timestamp"":5571.60000000149},""timestamp"":5571.60000000149},{""type"":""chart_hover"",""data"":{""x"":892,""y"":358,""timestamp"":5588.5},""timestamp"":5588.5},{""type"":""chart_hover"",""data"":{""x"":916,""y"":302,""timestamp"":5604.80000000447},""timestamp"":5604.80000000447},{""type"":""chart_hover"",""data"":{""x"":926,""y"":264,""timestamp"":5621.70000000298},""timestamp"":5621.70000000298},{""type"":""chart_hover"",""data"":{""x"":930,""y"":242,""timestamp"":5638.5},""timestamp"":5638.5},{""type"":""chart_hover"",""data"":{""x"":932,""y"":227,""timestamp"":5654.80000000447},""timestamp"":5654.80000000447},{""type"":""chart_hover"",""data"":{""x"":932,""y"":208,""timestamp"":5671.30000000447},""timestamp"":5671.30000000447},{""type"":""chart_hover"",""data"":{""x"":932,""y"":201,""timestamp"":5688.30000000447},""timestamp"":5688.30000000447},{""type"":""chart_hover"",""data"":{""x"":930,""y"":194,""timestamp"":5704.9000000059605},""timestamp"":5704.9000000059605},{""type"":""chart_hover"",""data"":{""x"":930,""y"":190,""timestamp"":5721.80000000447},""timestamp"":5721.80000000447},{""type"":""chart_hover"",""data"":{""x"":928,""y"":186,""timestamp"":5738.5},""timestamp"":5738.5},{""type"":""chart_hover"",""data"":{""x"":926,""y"":184,""timestamp"":5755.4000000059605},""timestamp"":5755.4000000059605},{""type"":""chart_hover"",""data"":{""x"":922,""y"":180,""timestamp"":5772.30000000447},""timestamp"":5772.30000000447},{""type"":""chart_hover"",""data"":{""x"":920,""y"":178,""timestamp"":5789.5},""timestamp"":5789.5},{""type"":""chart_hover"",""data"":{""x"":918,""y"":176,""timestamp"":5805.20000000298},""timestamp"":5805.20000000298},{""type"":""chart_hover"",""data"":{""x"":916,""y"":174,""timestamp"":5822.60000000149},""timestamp"":5822.60000000149},{""type"":""chart_hover"",""data"":{""x"":915,""y"":172,""timestamp"":5855.10000000149},""timestamp"":5855.10000000149},{""type"":""chart_hover"",""data"":{""x"":914,""y"":170,""timestamp"":5871.10000000149},""timestamp"":5871.10000000149},{""type"":""chart_hover"",""data"":{""x"":912,""y"":168,""timestamp"":5887.5},""timestamp"":5887.5},{""type"":""chart_hover"",""data"":{""x"":911,""y"":168,""timestamp"":5904.20000000298},""timestamp"":5904.20000000298},{""type"":""chart_hover"",""data"":{""x"":908,""y"":168,""timestamp"":5921},""timestamp"":5921},{""type"":""chart_hover"",""data"":{""x"":904,""y"":168,""timestamp"":5937.9000000059605},""timestamp"":5937.9000000059605},{""type"":""chart_hover"",""data"":{""x"":900,""y"":168,""timestamp"":5954.5},""timestamp"":5954.5},{""type"":""chart_hover"",""data"":{""x"":894,""y"":170,""timestamp"":5971.5},""timestamp"":5971.5},{""type"":""chart_hover"",""data"":{""x"":888,""y"":172,""timestamp"":5987.9000000059605},""timestamp"":5987.9000000059605},{""type"":""chart_hover"",""data"":{""x"":884,""y"":177,""timestamp"":6005.4000000059605},""timestamp"":6005.4000000059605},{""type"":""chart_hover"",""data"":{""x"":881,""y"":182,""timestamp"":6021.9000000059605},""timestamp"":6021.9000000059605},{""type"":""chart_hover"",""data"":{""x"":878,""y"":188,""timestamp"":6038.60000000149},""timestamp"":6038.60000000149},{""type"":""chart_hover"",""data"":{""x"":876,""y"":196,""timestamp"":6054.9000000059605},""timestamp"":6054.9000000059605},{""type"":""chart_hover"",""data"":{""x"":876,""y"":203,""timestamp"":6071.70000000298},""timestamp"":6071.70000000298},{""type"":""chart_hover"",""data"":{""x"":876,""y"":206,""timestamp"":6088.9000000059605},""timestamp"":6088.9000000059605},{""type"":""chart_hover"",""data"":{""x"":876,""y"":207,""timestamp"":6112},""timestamp"":6112},{""type"":""chart_hover"",""data"":{""x"":875,""y"":208,""timestamp"":6244.80000000447},""timestamp"":6244.80000000447},{""type"":""chart_hover"",""data"":{""x"":874,""y"":211,""timestamp"":6277.4000000059605},""timestamp"":6277.4000000059605},{""type"":""chart_hover"",""data"":{""x"":874,""y"":214,""timestamp"":6294.20000000298},""timestamp"":6294.20000000298},{""type"":""chart_hover"",""data"":{""x"":874,""y"":226,""timestamp"":6321.5},""timestamp"":6321.5},{""type"":""chart_hover"",""data"":{""x"":873,""y"":232,""timestamp"":6338.10000000149},""timestamp"":6338.10000000149},{""type"":""chart_hover"",""data"":{""x"":872,""y"":237,""timestamp"":6354.30000000447},""timestamp"":6354.30000000447},{""type"":""chart_hover"",""data"":{""x"":872,""y"":243,""timestamp"":6371.5},""timestamp"":6371.60000000149},{""type"":""chart_hover"",""data"":{""x"":872,""y"":248,""timestamp"":6388},""timestamp"":6388},{""type"":""chart_hover"",""data"":{""x"":872,""y"":252,""timestamp"":6404.30000000447},""timestamp"":6404.30000000447},{""type"":""chart_hover"",""data"":{""x"":872,""y"":254,""timestamp"":6421.5},""timestamp"":6421.5},{""type"":""chart_leave"",""data"":{""timestamp"":6438.30000000447},""timestamp"":6438.30000000447},{""type"":""chart_enter"",""data"":{""timestamp"":8943.10000000149},""timestamp"":8943.10000000149},{""type"":""chart_hover"",""data"":{""x"":686,""y"":322,""timestamp"":8943.20000000298},""timestamp"":8943.20000000298},{""type"":""chart_hover"",""data"":{""x"":687,""y"":323,""timestamp"":8960.10000000149},""timestamp"":8960.10000000149},{""type"":""chart_hover"",""data"":{""x"":690,""y"":324,""timestamp"":8976.90000000596},""timestamp"":8976.90000000596},{""type"":""chart_hover"",""data"":{""x"":691,""y"":326,""timestamp"":8993.10000000149},""timestamp"":8993.10000000149},{""type"":""chart_hover"",""data"":{""x"":693,""y"":327,""timestamp"":9009.20000000298},""timestamp"":9009.20000000298},{""type"":""chart_hover"",""data"":{""x"":694,""y"":327,""timestamp"":9127.30000000447},""timestamp"":9127.30000000447},{""type"":""chart_hover"",""data"":{""x"":694,""y"":328,""timestamp"":9193.40000000596},""timestamp"":9193.40000000596},{""type"":""chart_hover"",""data"":{""x"":694,""y"":329,""timestamp"":9208.90000000596},""timestamp"":9208.90000000596},{""type"":""chart_hover"",""data"":{""x"":694,""y"":330,""timestamp"":9260.30000000447},""timestamp"":9260.30000000447},{""type"":""chart_hover"",""data"":{""x"":694,""y"":331,""timestamp"":9275.90000000596},""timestamp"":9275.90000000596},{""type"":""chart_hover"",""data"":{""x"":694,""y"":332,""timestamp"":9303.20000000298},""timestamp"":9303.20000000298},{""type"":""chart_hover"",""data"":{""x"":696,""y"":332,""timestamp"":9320},""timestamp"":9320},{""type"":""chart_hover"",""data"":{""x"":696,""y"":333,""timestamp"":9353.80000000447},""timestamp"":9353.80000000447},{""type"":""chart_hover"",""data"":{""x"":697,""y"":334,""timestamp"":9387.40000000596},""timestamp"":9387.40000000596},{""type"":""chart_hover"",""data"":{""x"":698,""y"":335,""timestamp"":9432.30000000447},""timestamp"":9432.30000000447},{""type"":""chart_hover"",""data"":{""x"":698,""y"":336,""timestamp"":9489.60000000149},""timestamp"":9489.60000000149},{""type"":""chart_hover"",""data"":{""x"":699,""y"":337,""timestamp"":9537.30000000447},""timestamp"":9537.30000000447},{""type"":""chart_hover"",""data"":{""x"":700,""y"":339,""timestamp"":9554.80000000447},""timestamp"":9554.80000000447},{""type"":""chart_hover"",""data"":{""x"":700,""y"":342,""timestamp"":9570.30000000447},""timestamp"":9570.30000000447},{""type"":""chart_hover"",""data"":{""x"":703,""y"":347,""timestamp"":9587.30000000447},""timestamp"":9587.40000000596},{""type"":""chart_hover"",""data"":{""x"":707,""y"":359,""timestamp"":9604.30000000447},""timestamp"":9604.30000000447},{""type"":""chart_hover"",""data"":{""x"":711,""y"":377,""timestamp"":9620.70000000298},""timestamp"":9620.70000000298},{""type"":""chart_hover"",""data"":{""x"":712,""y"":393,""timestamp"":9637.60000000149},""timestamp"":9637.60000000149},{""type"":""chart_hover"",""data"":{""x"":710,""y"":413,""timestamp"":9654},""timestamp"":9654},{""type"":""chart_hover"",""data"":{""x"":708,""y"":427,""timestamp"":9670.70000000298},""timestamp"":9670.70000000298},{""type"":""chart_hover"",""data"":{""x"":705,""y"":437,""timestamp"":9686.90000000596},""timestamp"":9686.90000000596},{""type"":""chart_hover"",""data"":{""x"":702,""y"":447,""timestamp"":9702.90000000596},""timestamp"":9702.90000000596},{""type"":""chart_hover"",""data"":{""x"":701,""y"":450,""timestamp"":9720},""timestamp"":9720},{""type"":""chart_hover"",""data"":{""x"":700,""y"":452,""timestamp"":9736.90000000596},""timestamp"":9736.90000000596},{""type"":""chart_hover"",""data"":{""x"":700,""y"":453,""timestamp"":9760.40000000596},""timestamp"":9760.5},{""type"":""chart_hover"",""data"":{""x"":700,""y"":454,""timestamp"":9770.20000000298},""timestamp"":9770.20000000298},{""type"":""chart_leave"",""data"":{""timestamp"":9786.80000000447},""timestamp"":9786.80000000447},{""type"":""chart_enter"",""data"":{""timestamp"":13319.10000000149},""timestamp"":13319.10000000149},{""type"":""chart_hover"",""data"":{""x"":1198,""y"":266,""timestamp"":13319.20000000298},""timestamp"":13319.20000000298},{""type"":""chart_hover"",""data"":{""x"":950,""y"":262,""timestamp"":13335},""timestamp"":13335.10000000149},{""type"":""chart_hover"",""data"":{""x"":704,""y"":262,""timestamp"":13352.5},""timestamp"":13352.5},{""type"":""chart_hover"",""data"":{""x"":442,""y"":273,""timestamp"":13368.80000000447},""timestamp"":13368.80000000447},{""type"":""chart_hover"",""data"":{""x"":238,""y"":286,""timestamp"":13385.60000000149},""timestamp"":13385.60000000149},{""type"":""chart_hover"",""data"":{""x"":97,""y"":293,""timestamp"":13402.30000000447},""timestamp"":13402.30000000447},{""type"":""chart_leave"",""data"":{""timestamp"":13418.70000000298},""timestamp"":13418.80000000447},{""type"":""chart_enter"",""data"":{""timestamp"":14118.90000000596},""timestamp"":14118.90000000596},{""type"":""chart_hover"",""data"":{""x"":105,""y"":349,""timestamp"":14118.90000000596},""timestamp"":14118.90000000596},{""type"":""chart_hover"",""data"":{""x"":165,""y"":276,""timestamp"":14134.80000000447},""timestamp"":14134.80000000447},{""type"":""chart_hover"",""data"":{""x"":227,""y"":223,""timestamp"":14151.90000000596},""timestamp"":14151.90000000596},{""type"":""chart_hover"",""data"":{""x"":298,""y"":177,""timestamp"":14168.40000000596},""timestamp"":14168.40000000596},{""type"":""chart_hover"",""data"":{""x"":362,""y"":140,""timestamp"":14185.5},""timestamp"":14185.5},{""type"":""chart_hover"",""data"":{""x"":428,""y"":104,""timestamp"":14202.80000000447},""timestamp"":14202.80000000447},{""type"":""chart_hover"",""data"":{""x"":493,""y"":72,""timestamp"":14219.10000000149},""timestamp"":14219.10000000149},{""type"":""chart_hover"",""data"":{""x"":550,""y"":47,""timestamp"":14235.80000000447},""timestamp"":14235.80000000447},{""type"":""chart_hover"",""data"":{""x"":604,""y"":20,""timestamp"":14252.70000000298},""timestamp"":14252.80000000447},{""type"":""chart_hover"",""data"":{""x"":633,""y"":7,""timestamp"":14270.30000000447},""timestamp"":14270.30000000447},{""type"":""chart_hover"",""data"":{""x"":270,""y"":8,""timestamp"":14471.5},""timestamp"":14471.5},{""type"":""chart_hover"",""data"":{""x"":195,""y"":26,""timestamp"":14487.10000000149},""timestamp"":14487.10000000149},{""type"":""chart_hover"",""data"":{""x"":166,""y"":42,""timestamp"":14501.40000000596},""timestamp"":14501.40000000596},{""type"":""chart_hover"",""data"":{""x"":110,""y"":95,""timestamp"":14518},""timestamp"":14518},{""type"":""chart_hover"",""data"":{""x"":78,""y"":166,""timestamp"":14534.40000000596},""timestamp"":14534.40000000596},{""type"":""chart_hover"",""data"":{""x"":82,""y"":189,""timestamp"":14551.10000000149},""timestamp"":14551.10000000149},{""type"":""chart_hover"",""data"":{""x"":97,""y"":202,""timestamp"":14568.70000000298},""timestamp"":14568.70000000298},{""type"":""chart_hover"",""data"":{""x"":126,""y"":209,""timestamp"":14585.10000000149},""timestamp"":14585.10000000149},{""type"":""chart_hover"",""data"":{""x"":166,""y"":216,""timestamp"":14601.80000000447},""timestamp"":14601.80000000447},{""type"":""chart_hover"",""data"":{""x"":214,""y"":230,""timestamp"":14618.40000000596},""timestamp"":14618.40000000596},{""type"":""chart_hover"",""data"":{""x"":266,""y"":250,""timestamp"":14634.60000000149},""timestamp"":14634.60000000149},{""type"":""chart_hover"",""data"":{""x"":316,""y"":278,""timestamp"":14651.5},""timestamp"":14651.5},{""type"":""chart_hover"",""data"":{""x"":363,""y"":303,""timestamp"":14668.20000000298},""timestamp"":14668.20000000298},{""type"":""chart_hover"",""data"":{""x"":394,""y"":321,""timestamp"":14684.80000000447},""timestamp"":14684.80000000447},{""type"":""chart_hover"",""data"":{""x"":414,""y"":334,""timestamp"":14702.5},""timestamp"":14702.5},{""type"":""chart_hover"",""data"":{""x"":426,""y"":342,""timestamp"":14718.80000000447},""timestamp"":14718.80000000447},{""type"":""chart_hover"",""data"":{""x"":432,""y"":345,""timestamp"":14734.70000000298},""timestamp"":14734.70000000298},{""type"":""chart_hover"",""data"":{""x"":434,""y"":346,""timestamp"":14751.20000000298},""timestamp"":14751.20000000298},{""type"":""chart_hover"",""data"":{""x"":436,""y"":346,""timestamp"":14783.5},""timestamp"":14783.5},{""type"":""chart_hover"",""data"":{""x"":436,""y"":344,""timestamp"":14800.80000000447},""timestamp"":14800.80000000447},{""type"":""chart_hover"",""data"":{""x"":436,""y"":342,""timestamp"":14807.60000000149},""timestamp"":14807.70000000298},{""type"":""chart_hover"",""data"":{""x"":434,""y"":340,""timestamp"":14818.10000000149},""timestamp"":14818.10000000149},{""type"":""chart_hover"",""data"":{""x"":424,""y"":336,""timestamp"":14835},""timestamp"":14835},{""type"":""chart_hover"",""data"":{""x"":408,""y"":335,""timestamp"":14851.90000000596},""timestamp"":14851.90000000596},{""type"":""chart_hover"",""data"":{""x"":389,""y"":336,""timestamp"":14868.5},""timestamp"":14868.5},{""type"":""chart_hover"",""data"":{""x"":378,""y"":340,""timestamp"":14885.20000000298},""timestamp"":14885.20000000298},{""type"":""chart_hover"",""data"":{""x"":375,""y"":344,""timestamp"":14901.90000000596},""timestamp"":14901.90000000596},{""type"":""chart_hover"",""data"":{""x"":376,""y"":352,""timestamp"":14918.60000000149},""timestamp"":14918.60000000149},{""type"":""chart_leave"",""data"":{""timestamp"":14935.20000000298},""timestamp"":14935.20000000298},{""type"":""chart_enter"",""data"":{""timestamp"":25365.10000000149},""timestamp"":25365.10000000149},{""type"":""chart_hover"",""data"":{""x"":652,""y"":350,""timestamp"":25365.20000000298},""timestamp"":25365.20000000298},{""type"":""chart_hover"",""data"":{""x"":649,""y"":348,""timestamp"":25381.5},""timestamp"":25381.5},{""type"":""chart_hover"",""data"":{""x"":648,""y"":346,""timestamp"":25397.40000000596},""timestamp"":25397.40000000596},{""type"":""chart_hover"",""data"":{""x"":648,""y"":343,""timestamp"":25414.60000000149},""timestamp"":25414.60000000149},{""type"":""chart_hover"",""data"":{""x"":648,""y"":340,""timestamp"":25431.40000000596},""timestamp"":25431.40000000596},{""type"":""chart_hover"",""data"":{""x"":648,""y"":339,""timestamp"":25448.10000000149},""timestamp"":25448.10000000149},{""type"":""chart_hover"",""data"":{""x"":648,""y"":336,""timestamp"":25481.70000000298},""timestamp"":25481.70000000298},{""type"":""chart_hover"",""data"":{""x"":653,""y"":334,""timestamp"":25504.70000000298},""timestamp"":25504.70000000298},{""type"":""chart_hover"",""data"":{""x"":656,""y"":333,""timestamp"":25521.10000000149},""timestamp"":25521.10000000149},{""type"":""chart_hover"",""data"":{""x"":661,""y"":333,""timestamp"":25537.10000000149},""timestamp"":25537.20000000298},{""type"":""chart_hover"",""data"":{""x"":664,""y"":333,""timestamp"":25557.30000000447},""timestamp"":25557.30000000447},{""type"":""chart_hover"",""data"":{""x"":667,""y"":333,""timestamp"":25568.10000000149},""timestamp"":25568.10000000149},{""type"":""chart_hover"",""data"":{""x"":669,""y"":333,""timestamp"":25586.90000000596},""timestamp"":25586.90000000596},{""type"":""chart_hover"",""data"":{""x"":670,""y"":334,""timestamp"":25688.10000000149},""timestamp"":25688.10000000149},{""type"":""chart_hover"",""data"":{""x"":670,""y"":335,""timestamp"":25704.30000000447},""timestamp"":25704.30000000447},{""type"":""chart_hover"",""data"":{""x"":671,""y"":336,""timestamp"":25719.90000000596},""timestamp"":25719.90000000596},{""type"":""chart_hover"",""data"":{""x"":672,""y"":338,""timestamp"":25736.80000000447},""timestamp"":25736.90000000596},{""type"":""chart_hover"",""data"":{""x"":673,""y"":341,""timestamp"":25765.20000000298},""timestamp"":25765.20000000298},{""type"":""chart_hover"",""data"":{""x"":673,""y"":342,""timestamp"":25781.5},""timestamp"":25781.5},{""type"":""chart_hover"",""data"":{""x"":674,""y"":343,""timestamp"":25815},""timestamp"":25815},{""type"":""chart_hover"",""data"":{""x"":675,""y"":344,""timestamp"":25831.40000000596},""timestamp"":25831.40000000596},{""type"":""chart_hover"",""data"":{""x"":676,""y"":346,""timestamp"":25848.10000000149},""timestamp"":25848.10000000149},{""type"":""chart_hover"",""data"":{""x"":677,""y"":347,""timestamp"":25864.80000000447},""timestamp"":25864.80000000447},{""type"":""chart_hover"",""data"":{""x"":680,""y"":348,""timestamp"":25881.10000000149},""timestamp"":25881.10000000149},{""type"":""chart_hover"",""data"":{""x"":681,""y"":350,""timestamp"":25898.40000000596},""timestamp"":25898.40000000596},{""type"":""chart_hover"",""data"":{""x"":684,""y"":351,""timestamp"":25915.10000000149},""timestamp"":25915.10000000149},{""type"":""chart_hover"",""data"":{""x"":686,""y"":353,""timestamp"":25931.90000000596},""timestamp"":25932},{""type"":""chart_hover"",""data"":{""x"":688,""y"":354,""timestamp"":25948.40000000596},""timestamp"":25948.40000000596},{""type"":""chart_hover"",""data"":{""x"":689,""y"":356,""timestamp"":25964.80000000447},""timestamp"":25964.80000000447},{""type"":""chart_hover"",""data"":{""x"":690,""y"":357,""timestamp"":25981.90000000596},""timestamp"":25981.90000000596},{""type"":""chart_hover"",""data"":{""x"":692,""y"":358,""timestamp"":25998.40000000596},""timestamp"":25998.40000000596},{""type"":""chart_hover"",""data"":{""x"":694,""y"":360,""timestamp"":26064.70000000298},""timestamp"":26064.70000000298},{""type"":""chart_hover"",""data"":{""x"":696,""y"":361,""timestamp"":26114.80000000447},""timestamp"":26114.80000000447},{""type"":""chart_hover"",""data"":{""x"":696,""y"":362,""timestamp"":26144.20000000298},""timestamp"":26144.30000000447},{""type"":""chart_hover"",""data"":{""x"":696,""y"":363,""timestamp"":26159.90000000596},""timestamp"":26159.90000000596},{""type"":""chart_hover"",""data"":{""x"":696,""y"":364,""timestamp"":26201.40000000596},""timestamp"":26201.40000000596},{""type"":""chart_hover"",""data"":{""x"":696,""y"":365,""timestamp"":26256.90000000596},""timestamp"":26257},{""type"":""chart_hover"",""data"":{""x"":697,""y"":365,""timestamp"":26312.80000000447},""timestamp"":26312.80000000447},{""type"":""chart_hover"",""data"":{""x"":697,""y"":366,""timestamp"":27201},""timestamp"":27201},{""type"":""chart_hover"",""data"":{""x"":698,""y"":366,""timestamp"":27224.20000000298},""timestamp"":27224.30000000447},{""type"":""chart_hover"",""data"":{""x"":698,""y"":367,""timestamp"":27240.20000000298},""timestamp"":27240.20000000298},{""type"":""chart_hover"",""data"":{""x"":698,""y"":368,""timestamp"":27281.40000000596},""timestamp"":27281.5},{""type"":""chart_hover"",""data"":{""x"":698,""y"":369,""timestamp"":27330.90000000596},""timestamp"":27330.90000000596},{""type"":""chart_hover"",""data"":{""x"":698,""y"":370,""timestamp"":27416.60000000149},""timestamp"":27416.60000000149},{""type"":""chart_hover"",""data"":{""x"":698,""y"":371,""timestamp"":27465.80000000447},""timestamp"":27465.80000000447},{""type"":""chart_hover"",""data"":{""x"":698,""y"":372,""timestamp"":28289.20000000298},""timestamp"":28289.20000000298},{""type"":""chart_hover"",""data"":{""x"":698,""y"":373,""timestamp"":28312.10000000149},""timestamp"":28312.10000000149},{""type"":""chart_hover"",""data"":{""x"":698,""y"":374,""timestamp"":28320.10000000149},""timestamp"":28320.10000000149},{""type"":""chart_hover"",""data"":{""x"":698,""y"":375,""timestamp"":28336.90000000596},""timestamp"":28336.90000000596},{""type"":""chart_hover"",""data"":{""x"":697,""y"":376,""timestamp"":28347.70000000298},""timestamp"":28347.70000000298},{""type"":""chart_hover"",""data"":{""x"":696,""y"":378,""timestamp"":28364},""timestamp"":28364},{""type"":""chart_hover"",""data"":{""x"":694,""y"":379,""timestamp"":28380.70000000298},""timestamp"":28380.70000000298},{""type"":""chart_hover"",""data"":{""x"":692,""y"":380,""timestamp"":28400.30000000447},""timestamp"":28400.30000000447},{""type"":""chart_hover"",""data"":{""x"":692,""y"":381,""timestamp"":28488.70000000298},""timestamp"":28488.70000000298},{""type"":""chart_hover"",""data"":{""x"":692,""y"":382,""timestamp"":28577.30000000447},""timestamp"":28577.30000000447},{""type"":""chart_hover"",""data"":{""x"":692,""y"":383,""timestamp"":28616.90000000596},""timestamp"":28616.90000000596},{""type"":""chart_hover"",""data"":{""x"":692,""y"":384,""timestamp"":28640.20000000298},""timestamp"":28640.20000000298},{""type"":""chart_hover"",""data"":{""x"":692,""y"":385,""timestamp"":28680.80000000447},""timestamp"":28680.80000000447},{""type"":""chart_hover"",""data"":{""x"":692,""y"":386,""timestamp"":28697.30000000447},""timestamp"":28697.40000000596},{""type"":""chart_hover"",""data"":{""x"":692,""y"":387,""timestamp"":28714.20000000298},""timestamp"":28714.20000000298},{""type"":""chart_hover"",""data"":{""x"":692,""y"":389,""timestamp"":28730.60000000149},""timestamp"":28730.60000000149},{""type"":""chart_hover"",""data"":{""x"":693,""y"":390,""timestamp"":28747.5},""timestamp"":28747.5},{""type"":""chart_hover"",""data"":{""x"":694,""y"":392,""timestamp"":28763.90000000596},""timestamp"":28763.90000000596},{""type"":""chart_hover"",""data"":{""x"":694,""y"":395,""timestamp"":28780.5},""timestamp"":28780.5},{""type"":""chart_hover"",""data"":{""x"":694,""y"":399,""timestamp"":28797.30000000447},""timestamp"":28797.30000000447},{""type"":""chart_hover"",""data"":{""x"":694,""y"":404,""timestamp"":28814.30000000447},""timestamp"":28814.30000000447},{""type"":""chart_hover"",""data"":{""x"":694,""y"":408,""timestamp"":28830.60000000149},""timestamp"":28830.60000000149},{""type"":""chart_hover"",""data"":{""x"":693,""y"":411,""timestamp"":28847.10000000149},""timestamp"":28847.10000000149},{""type"":""chart_hover"",""data"":{""x"":692,""y"":415,""timestamp"":28863.80000000447},""timestamp"":28863.80000000447},{""type"":""chart_hover"",""data"":{""x"":692,""y"":419,""timestamp"":28880.40000000596},""timestamp"":28880.40000000596},{""type"":""chart_hover"",""data"":{""x"":691,""y"":425,""timestamp"":28896.90000000596},""timestamp"":28896.90000000596},{""type"":""chart_hover"",""data"":{""x"":690,""y"":430,""timestamp"":28913.60000000149},""timestamp"":28913.70000000298},{""type"":""chart_hover"",""data"":{""x"":688,""y"":436,""timestamp"":28930.30000000447},""timestamp"":28930.30000000447},{""type"":""chart_hover"",""data"":{""x"":686,""y"":442,""timestamp"":28947.10000000149},""timestamp"":28947.10000000149},{""type"":""chart_hover"",""data"":{""x"":685,""y"":448,""timestamp"":28964},""timestamp"":28964},{""type"":""chart_hover"",""data"":{""x"":684,""y"":455,""timestamp"":28980.80000000447},""timestamp"":28980.80000000447},{""type"":""chart_hover"",""data"":{""x"":684,""y"":463,""timestamp"":28997.40000000596},""timestamp"":28997.40000000596},{""type"":""chart_hover"",""data"":{""x"":684,""y"":471,""timestamp"":29014.30000000447},""timestamp"":29014.30000000447},{""type"":""chart_hover"",""data"":{""x"":684,""y"":480,""timestamp"":29030.5},""timestamp"":29030.5},{""type"":""chart_hover"",""data"":{""x"":684,""y"":485,""timestamp"":29047.20000000298},""timestamp"":29047.20000000298},{""type"":""chart_hover"",""data"":{""x"":683,""y"":490,""timestamp"":29064},""timestamp"":29064},{""type"":""chart_hover"",""data"":{""x"":681,""y"":498,""timestamp"":29080.20000000298},""timestamp"":29080.20000000298},{""type"":""chart_hover"",""data"":{""x"":680,""y"":501,""timestamp"":29096.60000000149},""timestamp"":29096.60000000149},{""type"":""chart_hover"",""data"":{""x"":680,""y"":503,""timestamp"":29113.30000000447},""timestamp"":29113.30000000447},{""type"":""chart_hover"",""data"":{""x"":680,""y"":504,""timestamp"":29130},""timestamp"":29130},{""type"":""chart_hover"",""data"":{""x"":680,""y"":507,""timestamp"":29147.10000000149},""timestamp"":29147.10000000149},{""type"":""chart_hover"",""data"":{""x"":680,""y"":508,""timestamp"":29163.60000000149},""timestamp"":29163.60000000149},{""type"":""chart_hover"",""data"":{""x"":680,""y"":510,""timestamp"":29180.20000000298},""timestamp"":29180.20000000298},{""type"":""chart_hover"",""data"":{""x"":681,""y"":513,""timestamp"":29197.30000000447},""timestamp"":29197.30000000447},{""type"":""chart_hover"",""data"":{""x"":686,""y"":517,""timestamp"":29213.80000000447},""timestamp"":29213.80000000447},{""type"":""chart_hover"",""data"":{""x"":694,""y"":522,""timestamp"":29230.5},""timestamp"":29230.5},{""type"":""chart_hover"",""data"":{""x"":706,""y"":526,""timestamp"":29247},""timestamp"":29247},{""type"":""chart_hover"",""data"":{""x"":723,""y"":534,""timestamp"":29263.70000000298},""timestamp"":29263.70000000298},{""type"":""chart_hover"",""data"":{""x"":742,""y"":541,""timestamp"":29280.10000000149},""timestamp"":29280.10000000149},{""type"":""chart_hover"",""data"":{""x"":768,""y"":552,""timestamp"":29297},""timestamp"":29297},{""type"":""chart_leave"",""data"":{""timestamp"":29314.10000000149},""timestamp"":29314.10000000149},{""type"":""chart_enter"",""data"":{""timestamp"":39617.20000000298},""timestamp"":39617.20000000298},{""type"":""chart_hover"",""data"":{""x"":562,""y"":468,""timestamp"":39617.20000000298},""timestamp"":39617.20000000298},{""type"":""chart_hover"",""data"":{""x"":563,""y"":469,""timestamp"":39632},""timestamp"":39632},{""type"":""chart_hover"",""data"":{""x"":565,""y"":469,""timestamp"":39715.40000000596},""timestamp"":39715.40000000596},{""type"":""chart_hover"",""data"":{""x"":566,""y"":468,""timestamp"":39733.60000000149},""timestamp"":39733.60000000149},{""type"":""chart_hover"",""data"":{""x"":569,""y"":466,""timestamp"":39749.70000000298},""timestamp"":39749.70000000298},{""type"":""chart_hover"",""data"":{""x"":572,""y"":463,""timestamp"":39765.90000000596},""timestamp"":39765.90000000596},{""type"":""chart_hover"",""data"":{""x"":573,""y"":460,""timestamp"":39782.30000000447},""timestamp"":39782.30000000447},{""type"":""chart_hover"",""data"":{""x"":574,""y"":458,""timestamp"":39798.80000000447},""timestamp"":39798.80000000447},{""type"":""chart_hover"",""data"":{""x"":576,""y"":450,""timestamp"":39815},""timestamp"":39815},{""type"":""chart_hover"",""data"":{""x"":576,""y"":446,""timestamp"":39832.60000000149},""timestamp"":39832.60000000149},{""type"":""chart_hover"",""data"":{""x"":576,""y"":436,""timestamp"":39849.30000000447},""timestamp"":39849.30000000447},{""type"":""chart_hover"",""data"":{""x"":574,""y"":425,""timestamp"":39865.5},""timestamp"":39865.5},{""type"":""chart_hover"",""data"":{""x"":570,""y"":410,""timestamp"":39883.5},""timestamp"":39883.60000000149},{""type"":""chart_hover"",""data"":{""x"":568,""y"":394,""timestamp"":39898.90000000596},""timestamp"":39898.90000000596},{""type"":""chart_hover"",""data"":{""x"":563,""y"":376,""timestamp"":39916.20000000298},""timestamp"":39916.20000000298},{""type"":""chart_hover"",""data"":{""x"":559,""y"":356,""timestamp"":39932.90000000596},""timestamp"":39932.90000000596},{""type"":""chart_hover"",""data"":{""x"":554,""y"":340,""timestamp"":39948.5},""timestamp"":39948.5},{""type"":""chart_hover"",""data"":{""x"":544,""y"":316,""timestamp"":39976.10000000149},""timestamp"":39976.10000000149},{""type"":""chart_hover"",""data"":{""x"":542,""y"":312,""timestamp"":39992.90000000596},""timestamp"":39992.90000000596},{""type"":""chart_hover"",""data"":{""x"":542,""y"":311,""timestamp"":40009.40000000596},""timestamp"":40009.40000000596},{""type"":""chart_hover"",""data"":{""x"":542,""y"":309,""timestamp"":40026},""timestamp"":40026},{""type"":""chart_hover"",""data"":{""x"":542,""y"":308,""timestamp"":40042.80000000447},""timestamp"":40042.80000000447},{""type"":""chart_hover"",""data"":{""x"":542,""y"":307,""timestamp"":40059.80000000447},""timestamp"":40059.80000000447},{""type"":""chart_hover"",""data"":{""x"":544,""y"":306,""timestamp"":40076.5},""timestamp"":40076.5},{""type"":""chart_hover"",""data"":{""x"":545,""y"":304,""timestamp"":40093.10000000149},""timestamp"":40093.10000000149},{""type"":""chart_hover"",""data"":{""x"":548,""y"":303,""timestamp"":40110.10000000149},""timestamp"":40110.10000000149},{""type"":""chart_hover"",""data"":{""x"":552,""y"":303,""timestamp"":40126.80000000447},""timestamp"":40126.80000000447},{""type"":""chart_hover"",""data"":{""x"":561,""y"":302,""timestamp"":40143.30000000447},""timestamp"":40143.30000000447},{""type"":""chart_hover"",""data"":{""x"":572,""y"":300,""timestamp"":40160},""timestamp"":40160},{""type"":""chart_hover"",""data"":{""x"":594,""y"":300,""timestamp"":40176.30000000447},""timestamp"":40176.30000000447},{""type"":""chart_hover"",""data"":{""x"":611,""y"":300,""timestamp"":40193.20000000298},""timestamp"":40193.20000000298},{""type"":""chart_hover"",""data"":{""x"":630,""y"":302,""timestamp"":40210.10000000149},""timestamp"":40210.10000000149},{""type"":""chart_hover"",""data"":{""x"":638,""y"":303,""timestamp"":40226.40000000596},""timestamp"":40226.40000000596},{""type"":""chart_hover"",""data"":{""x"":642,""y"":303,""timestamp"":40243.40000000596},""timestamp"":40243.40000000596},{""type"":""chart_hover"",""data"":{""x"":640,""y"":303,""timestamp"":40321.5},""timestamp"":40321.5},{""type"":""chart_hover"",""data"":{""x"":638,""y"":303,""timestamp"":40328.70000000298},""timestamp"":40328.70000000298},{""type"":""chart_hover"",""data"":{""x"":637,""y"":303,""timestamp"":40343.30000000447},""timestamp"":40343.30000000447},{""type"":""chart_hover"",""data"":{""x"":632,""y"":303,""timestamp"":40359.90000000596},""timestamp"":40359.90000000596},{""type"":""chart_hover"",""data"":{""x"":628,""y"":303,""timestamp"":40376.60000000149},""timestamp"":40376.60000000149},{""type"":""chart_hover"",""data"":{""x"":625,""y"":300,""timestamp"":40393.10000000149},""timestamp"":40393.10000000149},{""type"":""chart_hover"",""data"":{""x"":620,""y"":298,""timestamp"":40410},""timestamp"":40410},{""type"":""chart_hover"",""data"":{""x"":615,""y"":294,""timestamp"":40426.5},""timestamp"":40426.5},{""type"":""chart_hover"",""data"":{""x"":612,""y"":290,""timestamp"":40443.30000000447},""timestamp"":40443.30000000447},{""type"":""chart_hover"",""data"":{""x"":610,""y"":288,""timestamp"":40459.80000000447},""timestamp"":40459.80000000447},{""type"":""chart_hover"",""data"":{""x"":611,""y"":288,""timestamp"":40600.80000000447},""timestamp"":40600.80000000447},{""type"":""chart_hover"",""data"":{""x"":612,""y"":288,""timestamp"":40609.70000000298},""timestamp"":40609.70000000298},{""type"":""chart_hover"",""data"":{""x"":613,""y"":288,""timestamp"":40626.40000000596},""timestamp"":40626.40000000596},{""type"":""chart_hover"",""data"":{""x"":615,""y"":287,""timestamp"":40643.5},""timestamp"":40643.5},{""type"":""chart_hover"",""data"":{""x"":620,""y"":286,""timestamp"":40660},""timestamp"":40660},{""type"":""chart_hover"",""data"":{""x"":623,""y"":285,""timestamp"":40676.5},""timestamp"":40676.5},{""type"":""chart_hover"",""data"":{""x"":626,""y"":284,""timestamp"":40693.30000000447},""timestamp"":40693.30000000447},{""type"":""chart_hover"",""data"":{""x"":632,""y"":283,""timestamp"":40709.70000000298},""timestamp"":40709.70000000298},{""type"":""chart_hover"",""data"":{""x"":636,""y"":282,""timestamp"":40726.80000000447},""timestamp"":40726.80000000447},{""type"":""chart_hover"",""data"":{""x"":642,""y"":282,""timestamp"":40743.10000000149},""timestamp"":40743.10000000149},{""type"":""chart_hover"",""data"":{""x"":648,""y"":280,""timestamp"":40759.80000000447},""timestamp"":40759.80000000447},{""type"":""chart_hover"",""data"":{""x"":650,""y"":280,""timestamp"":40776.30000000447},""timestamp"":40776.30000000447},{""type"":""chart_hover"",""data"":{""x"":651,""y"":280,""timestamp"":40793.20000000298},""timestamp"":40793.20000000298},{""type"":""chart_hover"",""data"":{""x"":652,""y"":280,""timestamp"":40809.70000000298},""timestamp"":40809.70000000298},{""type"":""chart_hover"",""data"":{""x"":653,""y"":280,""timestamp"":40826.70000000298},""timestamp"":40826.70000000298},{""type"":""chart_hover"",""data"":{""x"":654,""y"":280,""timestamp"":40843},""timestamp"":40843},{""type"":""chart_hover"",""data"":{""x"":656,""y"":280,""timestamp"":40864.40000000596},""timestamp"":40864.40000000596},{""type"":""chart_hover"",""data"":{""x"":657,""y"":280,""timestamp"":40880.20000000298},""timestamp"":40880.20000000298},{""type"":""chart_hover"",""data"":{""x"":658,""y"":280,""timestamp"":40896},""timestamp"":40896},{""type"":""chart_hover"",""data"":{""x"":660,""y"":280,""timestamp"":40909.80000000447},""timestamp"":40909.80000000447},{""type"":""chart_hover"",""data"":{""x"":662,""y"":280,""timestamp"":40926.70000000298},""timestamp"":40926.70000000298},{""type"":""chart_hover"",""data"":{""x"":665,""y"":280,""timestamp"":40943},""timestamp"":40943.10000000149},{""type"":""chart_hover"",""data"":{""x"":667,""y"":280,""timestamp"":40959.80000000447},""timestamp"":40959.80000000447},{""type"":""chart_hover"",""data"":{""x"":668,""y"":280,""timestamp"":40976.40000000596},""timestamp"":40976.40000000596},{""type"":""chart_hover"",""data"":{""x"":672,""y"":280,""timestamp"":40992.60000000149},""timestamp"":40992.60000000149},{""type"":""chart_hover"",""data"":{""x"":674,""y"":280,""timestamp"":41009.60000000149},""timestamp"":41009.60000000149},{""type"":""chart_hover"",""data"":{""x"":675,""y"":280,""timestamp"":41026.30000000447},""timestamp"":41026.30000000447},{""type"":""chart_hover"",""data"":{""x"":676,""y"":280,""timestamp"":41043.20000000298},""timestamp"":41043.20000000298},{""type"":""chart_hover"",""data"":{""x"":677,""y"":280,""timestamp"":41065.10000000149},""timestamp"":41065.10000000149},{""type"":""chart_hover"",""data"":{""x"":678,""y"":280,""timestamp"":41076.80000000447},""timestamp"":41076.80000000447},{""type"":""chart_hover"",""data"":{""x"":679,""y"":280,""timestamp"":41126.60000000149},""timestamp"":41126.60000000149},{""type"":""chart_hover"",""data"":{""x"":680,""y"":280,""timestamp"":41142.90000000596},""timestamp"":41142.90000000596},{""type"":""chart_hover"",""data"":{""x"":682,""y"":280,""timestamp"":41159.5},""timestamp"":41159.5},{""type"":""chart_hover"",""data"":{""x"":682,""y"":281,""timestamp"":41346.30000000447},""timestamp"":41346.30000000447},{""type"":""chart_hover"",""data"":{""x"":682,""y"":282,""timestamp"":41361.30000000447},""timestamp"":41361.30000000447},{""type"":""chart_hover"",""data"":{""x"":681,""y"":283,""timestamp"":41377.60000000149},""timestamp"":41377.60000000149},{""type"":""chart_hover"",""data"":{""x"":679,""y"":284,""timestamp"":41392.70000000298},""timestamp"":41392.70000000298},{""type"":""chart_hover"",""data"":{""x"":676,""y"":286,""timestamp"":41409.20000000298},""timestamp"":41409.20000000298},{""type"":""chart_hover"",""data"":{""x"":672,""y"":289,""timestamp"":41425.90000000596},""timestamp"":41425.90000000596},{""type"":""chart_hover"",""data"":{""x"":662,""y"":294,""timestamp"":41442.70000000298},""timestamp"":41442.70000000298},{""type"":""chart_hover"",""data"":{""x"":645,""y"":304,""timestamp"":41459.60000000149},""timestamp"":41459.60000000149},{""type"":""chart_hover"",""data"":{""x"":595,""y"":328,""timestamp"":41476.30000000447},""timestamp"":41476.30000000447},{""type"":""chart_hover"",""data"":{""x"":529,""y"":366,""timestamp"":41493.10000000149},""timestamp"":41493.10000000149},{""type"":""chart_hover"",""data"":{""x"":468,""y"":401,""timestamp"":41509.60000000149},""timestamp"":41509.60000000149},{""type"":""chart_hover"",""data"":{""x"":414,""y"":435,""timestamp"":41526.30000000447},""timestamp"":41526.30000000447},{""type"":""chart_hover"",""data"":{""x"":384,""y"":460,""timestamp"":41543},""timestamp"":41543},{""type"":""chart_hover"",""data"":{""x"":369,""y"":479,""timestamp"":41559.30000000447},""timestamp"":41559.30000000447},{""type"":""chart_hover"",""data"":{""x"":355,""y"":510,""timestamp"":41575.90000000596},""timestamp"":41576},{""type"":""chart_hover"",""data"":{""x"":346,""y"":529,""timestamp"":41592.70000000298},""timestamp"":41592.70000000298},{""type"":""chart_hover"",""data"":{""x"":339,""y"":545,""timestamp"":41609.10000000149},""timestamp"":41609.10000000149},{""type"":""chart_hover"",""data"":{""x"":334,""y"":553,""timestamp"":41625.90000000596},""timestamp"":41625.90000000596},{""type"":""chart_leave"",""data"":{""timestamp"":41643.10000000149},""timestamp"":41643.10000000149},{""type"":""chart_enter"",""data"":{""timestamp"":60136.60000000149},""timestamp"":60136.60000000149},{""type"":""chart_hover"",""data"":{""x"":708,""y"":170,""timestamp"":60136.70000000298},""timestamp"":60136.70000000298},{""type"":""chart_hover"",""data"":{""x"":713,""y"":173,""timestamp"":60158.80000000447},""timestamp"":60158.80000000447},{""type"":""chart_hover"",""data"":{""x"":720,""y"":176,""timestamp"":60175.80000000447},""timestamp"":60175.80000000447},{""type"":""chart_hover"",""data"":{""x"":734,""y"":187,""timestamp"":60191.70000000298},""timestamp"":60191.70000000298},{""type"":""chart_hover"",""data"":{""x"":757,""y"":200,""timestamp"":60208.90000000596},""timestamp"":60208.90000000596},{""type"":""chart_hover"",""data"":{""x"":786,""y"":218,""timestamp"":60225.30000000447},""timestamp"":60225.30000000447},{""type"":""chart_hover"",""data"":{""x"":813,""y"":234,""timestamp"":60241.5},""timestamp"":60241.5},{""type"":""chart_hover"",""data"":{""x"":832,""y"":245,""timestamp"":60259},""timestamp"":60259},{""type"":""chart_hover"",""data"":{""x"":847,""y"":253,""timestamp"":60275.40000000596},""timestamp"":60275.40000000596},{""type"":""chart_hover"",""data"":{""x"":859,""y"":260,""timestamp"":60292.10000000149},""timestamp"":60292.10000000149},{""type"":""chart_hover"",""data"":{""x"":866,""y"":266,""timestamp"":60308.90000000596},""timestamp"":60308.90000000596},{""type"":""chart_hover"",""data"":{""x"":874,""y"":272,""timestamp"":60324.80000000447},""timestamp"":60324.80000000447},{""type"":""chart_hover"",""data"":{""x"":877,""y"":276,""timestamp"":60342.20000000298},""timestamp"":60342.20000000298},{""type"":""chart_hover"",""data"":{""x"":878,""y"":280,""timestamp"":60358.70000000298},""timestamp"":60358.70000000298},{""type"":""chart_hover"",""data"":{""x"":878,""y"":281,""timestamp"":60374.40000000596},""timestamp"":60374.40000000596},{""type"":""chart_hover"",""data"":{""x"":878,""y"":283,""timestamp"":60391.5},""timestamp"":60391.5},{""type"":""chart_hover"",""data"":{""x"":878,""y"":285,""timestamp"":60409.10000000149},""timestamp"":60409.10000000149},{""type"":""chart_hover"",""data"":{""x"":878,""y"":289,""timestamp"":60425},""timestamp"":60425},{""type"":""chart_hover"",""data"":{""x"":876,""y"":292,""timestamp"":60441.60000000149},""timestamp"":60441.60000000149},{""type"":""chart_hover"",""data"":{""x"":874,""y"":297,""timestamp"":60458},""timestamp"":60458},{""type"":""chart_hover"",""data"":{""x"":872,""y"":302,""timestamp"":60485.80000000447},""timestamp"":60485.80000000447},{""type"":""chart_hover"",""data"":{""x"":868,""y"":306,""timestamp"":60502.20000000298},""timestamp"":60502.20000000298},{""type"":""chart_hover"",""data"":{""x"":864,""y"":306,""timestamp"":60507.90000000596},""timestamp"":60507.90000000596},{""type"":""chart_hover"",""data"":{""x"":844,""y"":313,""timestamp"":60535.60000000149},""timestamp"":60535.60000000149},{""type"":""chart_hover"",""data"":{""x"":829,""y"":315,""timestamp"":60552.5},""timestamp"":60552.5},{""type"":""chart_hover"",""data"":{""x"":812,""y"":316,""timestamp"":60569.10000000149},""timestamp"":60569.10000000149},{""type"":""chart_hover"",""data"":{""x"":790,""y"":316,""timestamp"":60585.80000000447},""timestamp"":60585.80000000447},{""type"":""chart_hover"",""data"":{""x"":773,""y"":316,""timestamp"":60603.10000000149},""timestamp"":60603.10000000149},{""type"":""chart_hover"",""data"":{""x"":757,""y"":316,""timestamp"":60619.70000000298},""timestamp"":60619.70000000298},{""type"":""chart_hover"",""data"":{""x"":746,""y"":314,""timestamp"":60636.40000000596},""timestamp"":60636.40000000596},{""type"":""chart_hover"",""data"":{""x"":735,""y"":310,""timestamp"":60653.40000000596},""timestamp"":60653.40000000596},{""type"":""chart_hover"",""data"":{""x"":725,""y"":305,""timestamp"":60669.70000000298},""timestamp"":60669.70000000298},{""type"":""chart_hover"",""data"":{""x"":713,""y"":297,""timestamp"":60686.70000000298},""timestamp"":60686.70000000298},{""type"":""chart_hover"",""data"":{""x"":704,""y"":282,""timestamp"":60704.20000000298},""timestamp"":60704.30000000447},{""type"":""chart_hover"",""data"":{""x"":696,""y"":263,""timestamp"":60719.30000000447},""timestamp"":60719.40000000596},{""type"":""chart_hover"",""data"":{""x"":687,""y"":226,""timestamp"":60736.10000000149},""timestamp"":60736.10000000149},{""type"":""chart_hover"",""data"":{""x"":683,""y"":204,""timestamp"":60753.40000000596},""timestamp"":60753.40000000596},{""type"":""chart_hover"",""data"":{""x"":680,""y"":186,""timestamp"":60770.5},""timestamp"":60770.5},{""type"":""chart_hover"",""data"":{""x"":678,""y"":172,""timestamp"":60786.70000000298},""timestamp"":60786.70000000298},{""type"":""chart_hover"",""data"":{""x"":676,""y"":163,""timestamp"":60804.10000000149},""timestamp"":60804.10000000149},{""type"":""chart_hover"",""data"":{""x"":674,""y"":160,""timestamp"":60819.80000000447},""timestamp"":60819.80000000447},{""type"":""chart_hover"",""data"":{""x"":671,""y"":157,""timestamp"":60836.30000000447},""timestamp"":60836.30000000447},{""type"":""chart_hover"",""data"":{""x"":670,""y"":156,""timestamp"":60853.20000000298},""timestamp"":60853.20000000298},{""type"":""chart_hover"",""data"":{""x"":668,""y"":156,""timestamp"":60869.5},""timestamp"":60869.5},{""type"":""chart_hover"",""data"":{""x"":665,""y"":156,""timestamp"":60886.30000000447},""timestamp"":60886.30000000447},{""type"":""chart_hover"",""data"":{""x"":662,""y"":156,""timestamp"":60902.90000000596},""timestamp"":60902.90000000596},{""type"":""chart_hover"",""data"":{""x"":655,""y"":158,""timestamp"":60919.5},""timestamp"":60919.5},{""type"":""chart_hover"",""data"":{""x"":646,""y"":162,""timestamp"":60936.30000000447},""timestamp"":60936.30000000447},{""type"":""chart_hover"",""data"":{""x"":640,""y"":166,""timestamp"":60952.90000000596},""timestamp"":60952.90000000596},{""type"":""chart_hover"",""data"":{""x"":636,""y"":170,""timestamp"":60969.40000000596},""timestamp"":60969.40000000596},{""type"":""chart_hover"",""data"":{""x"":632,""y"":173,""timestamp"":60986.20000000298},""timestamp"":60986.20000000298},{""type"":""chart_hover"",""data"":{""x"":630,""y"":177,""timestamp"":61003.10000000149},""timestamp"":61003.10000000149},{""type"":""chart_hover"",""data"":{""x"":630,""y"":178,""timestamp"":61019.70000000298},""timestamp"":61019.70000000298},{""type"":""chart_hover"",""data"":{""x"":630,""y"":179,""timestamp"":61086.30000000447},""timestamp"":61086.30000000447},{""type"":""chart_hover"",""data"":{""x"":631,""y"":179,""timestamp"":61102.90000000596},""timestamp"":61102.90000000596},{""type"":""chart_hover"",""data"":{""x"":632,""y"":179,""timestamp"":61119.40000000596},""timestamp"":61119.40000000596},{""type"":""chart_hover"",""data"":{""x"":633,""y"":179,""timestamp"":61136},""timestamp"":61136},{""type"":""chart_hover"",""data"":{""x"":634,""y"":178,""timestamp"":61152.80000000447},""timestamp"":61152.80000000447},{""type"":""chart_hover"",""data"":{""x"":636,""y"":178,""timestamp"":61169.30000000447},""timestamp"":61169.30000000447},{""type"":""chart_hover"",""data"":{""x"":638,""y"":177,""timestamp"":61186.10000000149},""timestamp"":61186.20000000298},{""type"":""chart_hover"",""data"":{""x"":638,""y"":176,""timestamp"":61208.30000000447},""timestamp"":61208.30000000447},{""type"":""chart_hover"",""data"":{""x"":639,""y"":176,""timestamp"":61232},""timestamp"":61232},{""type"":""chart_hover"",""data"":{""x"":640,""y"":176,""timestamp"":61240.30000000447},""timestamp"":61240.30000000447},{""type"":""chart_hover"",""data"":{""x"":642,""y"":176,""timestamp"":61257.10000000149},""timestamp"":61257.10000000149},{""type"":""chart_hover"",""data"":{""x"":644,""y"":176,""timestamp"":61269.30000000447},""timestamp"":61269.30000000447},{""type"":""chart_hover"",""data"":{""x"":652,""y"":177,""timestamp"":61286.30000000447},""timestamp"":61286.40000000596},{""type"":""chart_hover"",""data"":{""x"":662,""y"":178,""timestamp"":61302.80000000447},""timestamp"":61302.80000000447},{""type"":""chart_hover"",""data"":{""x"":674,""y"":180,""timestamp"":61319.40000000596},""timestamp"":61319.40000000596},{""type"":""chart_hover"",""data"":{""x"":679,""y"":180,""timestamp"":61336},""timestamp"":61336},{""type"":""chart_hover"",""data"":{""x"":682,""y"":181,""timestamp"":61352.80000000447},""timestamp"":61352.90000000596},{""type"":""chart_hover"",""data"":{""x"":680,""y"":181,""timestamp"":61472.80000000447},""timestamp"":61472.80000000447},{""type"":""chart_hover"",""data"":{""x"":678,""y"":180,""timestamp"":61486.5},""timestamp"":61486.5},{""type"":""chart_hover"",""data"":{""x"":668,""y"":177,""timestamp"":61502.80000000447},""timestamp"":61502.80000000447},{""type"":""chart_hover"",""data"":{""x"":652,""y"":174,""timestamp"":61519.10000000149},""timestamp"":61519.10000000149},{""type"":""chart_hover"",""data"":{""x"":625,""y"":170,""timestamp"":61535.80000000447},""timestamp"":61535.80000000447},{""type"":""chart_hover"",""data"":{""x"":568,""y"":167,""timestamp"":61552.60000000149},""timestamp"":61552.60000000149},{""type"":""chart_hover"",""data"":{""x"":530,""y"":167,""timestamp"":61569.20000000298},""timestamp"":61569.20000000298},{""type"":""chart_hover"",""data"":{""x"":502,""y"":167,""timestamp"":61586.20000000298},""timestamp"":61586.20000000298},{""type"":""chart_hover"",""data"":{""x"":482,""y"":167,""timestamp"":61602.90000000596},""timestamp"":61602.90000000596},{""type"":""chart_hover"",""data"":{""x"":472,""y"":167,""timestamp"":61619.40000000596},""timestamp"":61619.40000000596},{""type"":""chart_hover"",""data"":{""x"":465,""y"":168,""timestamp"":61636.20000000298},""timestamp"":61636.20000000298},{""type"":""chart_hover"",""data"":{""x"":460,""y"":169,""timestamp"":61652.80000000447},""timestamp"":61652.80000000447},{""type"":""chart_hover"",""data"":{""x"":458,""y"":170,""timestamp"":61669.80000000447},""timestamp"":61669.80000000447},{""type"":""chart_hover"",""data"":{""x"":456,""y"":172,""timestamp"":61686.30000000447},""timestamp"":61686.30000000447},{""type"":""chart_hover"",""data"":{""x"":454,""y"":172,""timestamp"":61703.10000000149},""timestamp"":61703.10000000149},{""type"":""chart_hover"",""data"":{""x"":452,""y"":173,""timestamp"":61719.40000000596},""timestamp"":61719.40000000596},{""type"":""chart_hover"",""data"":{""x"":451,""y"":173,""timestamp"":61735.90000000596},""timestamp"":61736},{""type"":""chart_hover"",""data"":{""x"":448,""y"":173,""timestamp"":61752.5},""timestamp"":61752.5},{""type"":""chart_hover"",""data"":{""x"":446,""y"":173,""timestamp"":61769.5},""timestamp"":61769.5},{""type"":""chart_hover"",""data"":{""x"":442,""y"":172,""timestamp"":61785.90000000596},""timestamp"":61785.90000000596},{""type"":""chart_hover"",""data"":{""x"":439,""y"":171,""timestamp"":61802.80000000447},""timestamp"":61802.80000000447},{""type"":""chart_hover"",""data"":{""x"":437,""y"":170,""timestamp"":61819.60000000149},""timestamp"":61819.60000000149},{""type"":""chart_hover"",""data"":{""x"":434,""y"":169,""timestamp"":61836},""timestamp"":61836},{""type"":""chart_hover"",""data"":{""x"":430,""y"":166,""timestamp"":61853},""timestamp"":61853},{""type"":""chart_hover"",""data"":{""x"":426,""y"":164,""timestamp"":61869.30000000447},""timestamp"":61869.30000000447},{""type"":""chart_hover"",""data"":{""x"":421,""y"":160,""timestamp"":61886},""timestamp"":61886},{""type"":""chart_hover"",""data"":{""x"":418,""y"":159,""timestamp"":61903},""timestamp"":61903},{""type"":""chart_hover"",""data"":{""x"":416,""y"":158,""timestamp"":61919.40000000596},""timestamp"":61919.40000000596},{""type"":""chart_hover"",""data"":{""x"":414,""y"":157,""timestamp"":61935.90000000596},""timestamp"":61935.90000000596},{""type"":""chart_hover"",""data"":{""x"":412,""y"":156,""timestamp"":61952.30000000447},""timestamp"":61952.30000000447},{""type"":""chart_hover"",""data"":{""x"":412,""y"":155,""timestamp"":61984.60000000149},""timestamp"":61984.60000000149},{""type"":""chart_hover"",""data"":{""x"":411,""y"":155,""timestamp"":62001},""timestamp"":62001},{""type"":""chart_hover"",""data"":{""x"":410,""y"":154,""timestamp"":62008.60000000149},""timestamp"":62008.60000000149},{""type"":""chart_hover"",""data"":{""x"":408,""y"":154,""timestamp"":62024.20000000298},""timestamp"":62024.20000000298},{""type"":""chart_hover"",""data"":{""x"":407,""y"":154,""timestamp"":62072.5},""timestamp"":62072.5},{""type"":""chart_hover"",""data"":{""x"":406,""y"":154,""timestamp"":62209.30000000447},""timestamp"":62209.30000000447},{""type"":""chart_hover"",""data"":{""x"":404,""y"":154,""timestamp"":62252.80000000447},""timestamp"":62252.80000000447},{""type"":""chart_hover"",""data"":{""x"":404,""y"":156,""timestamp"":62269.10000000149},""timestamp"":62269.10000000149},{""type"":""chart_hover"",""data"":{""x"":403,""y"":158,""timestamp"":62288.20000000298},""timestamp"":62288.20000000298},{""type"":""chart_hover"",""data"":{""x"":403,""y"":159,""timestamp"":62335.60000000149},""timestamp"":62335.60000000149},{""type"":""chart_hover"",""data"":{""x"":402,""y"":161,""timestamp"":62352.20000000298},""timestamp"":62352.20000000298},{""type"":""chart_hover"",""data"":{""x"":403,""y"":162,""timestamp"":62402.90000000596},""timestamp"":62403},{""type"":""chart_hover"",""data"":{""x"":406,""y"":164,""timestamp"":62419},""timestamp"":62419},{""type"":""chart_hover"",""data"":{""x"":412,""y"":164,""timestamp"":62435.60000000149},""timestamp"":62435.60000000149},{""type"":""chart_hover"",""data"":{""x"":421,""y"":166,""timestamp"":62452.80000000447},""timestamp"":62452.80000000447},{""type"":""chart_hover"",""data"":{""x"":430,""y"":168,""timestamp"":62469.20000000298},""timestamp"":62469.20000000298},{""type"":""chart_hover"",""data"":{""x"":437,""y"":169,""timestamp"":62486.30000000447},""timestamp"":62486.30000000447},{""type"":""chart_hover"",""data"":{""x"":442,""y"":169,""timestamp"":62502.90000000596},""timestamp"":62502.90000000596},{""type"":""chart_hover"",""data"":{""x"":446,""y"":169,""timestamp"":62519.10000000149},""timestamp"":62519.20000000298},{""type"":""chart_hover"",""data"":{""x"":450,""y"":169,""timestamp"":62535.60000000149},""timestamp"":62535.60000000149},{""type"":""chart_hover"",""data"":{""x"":457,""y"":170,""timestamp"":62552.30000000447},""timestamp"":62552.30000000447},{""type"":""chart_hover"",""data"":{""x"":461,""y"":171,""timestamp"":62568.60000000149},""timestamp"":62568.60000000149},{""type"":""chart_hover"",""data"":{""x"":463,""y"":171,""timestamp"":62585.5},""timestamp"":62585.5},{""type"":""chart_hover"",""data"":{""x"":466,""y"":172,""timestamp"":62602.60000000149},""timestamp"":62602.60000000149},{""type"":""chart_hover"",""data"":{""x"":468,""y"":172,""timestamp"":62619},""timestamp"":62619},{""type"":""chart_hover"",""data"":{""x"":470,""y"":172,""timestamp"":62636.30000000447},""timestamp"":62636.30000000447},{""type"":""chart_hover"",""data"":{""x"":471,""y"":172,""timestamp"":62652.70000000298},""timestamp"":62652.70000000298},{""type"":""chart_hover"",""data"":{""x"":474,""y"":173,""timestamp"":62669.10000000149},""timestamp"":62669.10000000149},{""type"":""chart_hover"",""data"":{""x"":475,""y"":173,""timestamp"":62696.10000000149},""timestamp"":62696.10000000149},{""type"":""chart_hover"",""data"":{""x"":476,""y"":173,""timestamp"":62705.20000000298},""timestamp"":62705.20000000298},{""type"":""chart_hover"",""data"":{""x"":477,""y"":173,""timestamp"":62727.90000000596},""timestamp"":62728},{""type"":""chart_hover"",""data"":{""x"":476,""y"":173,""timestamp"":62824.80000000447},""timestamp"":62824.80000000447},{""type"":""chart_hover"",""data"":{""x"":474,""y"":173,""timestamp"":62839.90000000596},""timestamp"":62839.90000000596},{""type"":""chart_hover"",""data"":{""x"":472,""y"":172,""timestamp"":62852.5},""timestamp"":62852.5},{""type"":""chart_hover"",""data"":{""x"":468,""y"":171,""timestamp"":62869.30000000447},""timestamp"":62869.30000000447},{""type"":""chart_hover"",""data"":{""x"":464,""y"":170,""timestamp"":62885.5},""timestamp"":62885.5},{""type"":""chart_hover"",""data"":{""x"":461,""y"":168,""timestamp"":62902.5},""timestamp"":62902.5},{""type"":""chart_hover"",""data"":{""x"":459,""y"":168,""timestamp"":62918.80000000447},""timestamp"":62918.80000000447},{""type"":""chart_hover"",""data"":{""x"":458,""y"":168,""timestamp"":62935.5},""timestamp"":62935.5},{""type"":""chart_hover"",""data"":{""x"":456,""y"":167,""timestamp"":62952.20000000298},""timestamp"":62952.30000000447},{""type"":""chart_hover"",""data"":{""x"":454,""y"":166,""timestamp"":62968.80000000447},""timestamp"":62968.80000000447},{""type"":""chart_hover"",""data"":{""x"":452,""y"":164,""timestamp"":62985.40000000596},""timestamp"":62985.40000000596},{""type"":""chart_hover"",""data"":{""x"":449,""y"":163,""timestamp"":63002.30000000447},""timestamp"":63002.30000000447},{""type"":""chart_hover"",""data"":{""x"":446,""y"":162,""timestamp"":63018.90000000596},""timestamp"":63018.90000000596},{""type"":""chart_hover"",""data"":{""x"":444,""y"":160,""timestamp"":63035.5},""timestamp"":63035.5},{""type"":""chart_hover"",""data"":{""x"":442,""y"":159,""timestamp"":63052.30000000447},""timestamp"":63052.30000000447},{""type"":""chart_hover"",""data"":{""x"":441,""y"":158,""timestamp"":63069},""timestamp"":63069},{""type"":""chart_hover"",""data"":{""x"":439,""y"":157,""timestamp"":63086},""timestamp"":63086},{""type"":""chart_hover"",""data"":{""x"":436,""y"":156,""timestamp"":63102.10000000149},""timestamp"":63102.10000000149},{""type"":""chart_hover"",""data"":{""x"":433,""y"":154,""timestamp"":63118.5},""timestamp"":63118.5},{""type"":""chart_hover"",""data"":{""x"":430,""y"":154,""timestamp"":63135.40000000596},""timestamp"":63135.40000000596},{""type"":""chart_hover"",""data"":{""x"":426,""y"":154,""timestamp"":63151.90000000596},""timestamp"":63151.90000000596},{""type"":""chart_hover"",""data"":{""x"":424,""y"":153,""timestamp"":63168.5},""timestamp"":63168.5},{""type"":""chart_hover"",""data"":{""x"":422,""y"":153,""timestamp"":63185.90000000596},""timestamp"":63185.90000000596},{""type"":""chart_hover"",""data"":{""x"":420,""y"":153,""timestamp"":63202.20000000298},""timestamp"":63202.20000000298},{""type"":""chart_hover"",""data"":{""x"":419,""y"":153,""timestamp"":63218.80000000447},""timestamp"":63218.80000000447},{""type"":""chart_hover"",""data"":{""x"":418,""y"":153,""timestamp"":63235.5},""timestamp"":63235.5},{""type"":""chart_hover"",""data"":{""x"":417,""y"":153,""timestamp"":63252.40000000596},""timestamp"":63252.40000000596},{""type"":""chart_hover"",""data"":{""x"":415,""y"":153,""timestamp"":63268.70000000298},""timestamp"":63268.70000000298},{""type"":""chart_hover"",""data"":{""x"":413,""y"":153,""timestamp"":63285.30000000447},""timestamp"":63285.40000000596},{""type"":""chart_hover"",""data"":{""x"":411,""y"":153,""timestamp"":63302.40000000596},""timestamp"":63302.40000000596},{""type"":""chart_hover"",""data"":{""x"":410,""y"":154,""timestamp"":63318.70000000298},""timestamp"":63318.70000000298},{""type"":""chart_hover"",""data"":{""x"":409,""y"":154,""timestamp"":63553.10000000149},""timestamp"":63553.10000000149},{""type"":""chart_hover"",""data"":{""x"":408,""y"":154,""timestamp"":63680.70000000298},""timestamp"":63680.70000000298},{""type"":""chart_hover"",""data"":{""x"":407,""y"":154,""timestamp"":63696.90000000596},""timestamp"":63696.90000000596},{""type"":""chart_hover"",""data"":{""x"":406,""y"":154,""timestamp"":63735.90000000596},""timestamp"":63735.90000000596},{""type"":""chart_hover"",""data"":{""x"":405,""y"":154,""timestamp"":63993.20000000298},""timestamp"":63993.20000000298},{""type"":""chart_hover"",""data"":{""x"":404,""y"":154,""timestamp"":64001.70000000298},""timestamp"":64001.70000000298},{""type"":""chart_hover"",""data"":{""x"":404,""y"":153,""timestamp"":64032.90000000596},""timestamp"":64032.90000000596},{""type"":""chart_hover"",""data"":{""x"":403,""y"":152,""timestamp"":64088.90000000596},""timestamp"":64088.90000000596},{""type"":""chart_hover"",""data"":{""x"":404,""y"":152,""timestamp"":64416.70000000298},""timestamp"":64416.70000000298},{""type"":""chart_hover"",""data"":{""x"":406,""y"":153,""timestamp"":64424.70000000298},""timestamp"":64424.70000000298},{""type"":""chart_hover"",""data"":{""x"":408,""y"":154,""timestamp"":64440.40000000596},""timestamp"":64440.40000000596},{""type"":""chart_hover"",""data"":{""x"":410,""y"":154,""timestamp"":64456.70000000298},""timestamp"":64456.70000000298},{""type"":""chart_hover"",""data"":{""x"":412,""y"":155,""timestamp"":64468.80000000447},""timestamp"":64468.80000000447},{""type"":""chart_hover"",""data"":{""x"":413,""y"":156,""timestamp"":64485.20000000298},""timestamp"":64485.20000000298},{""type"":""chart_hover"",""data"":{""x"":416,""y"":156,""timestamp"":64501.60000000149},""timestamp"":64501.60000000149},{""type"":""chart_hover"",""data"":{""x"":418,""y"":156,""timestamp"":64518.60000000149},""timestamp"":64518.70000000298},{""type"":""chart_hover"",""data"":{""x"":420,""y"":156,""timestamp"":64535.10000000149},""timestamp"":64535.10000000149},{""type"":""chart_hover"",""data"":{""x"":422,""y"":156,""timestamp"":64551.60000000149},""timestamp"":64551.60000000149},{""type"":""chart_hover"",""data"":{""x"":423,""y"":156,""timestamp"":64569.10000000149},""timestamp"":64569.10000000149},{""type"":""chart_hover"",""data"":{""x"":425,""y"":157,""timestamp"":64585.20000000298},""timestamp"":64585.20000000298},{""type"":""chart_hover"",""data"":{""x"":426,""y"":157,""timestamp"":64602},""timestamp"":64602},{""type"":""chart_hover"",""data"":{""x"":427,""y"":157,""timestamp"":64623.70000000298},""timestamp"":64623.70000000298},{""type"":""chart_hover"",""data"":{""x"":428,""y"":158,""timestamp"":64635.10000000149},""timestamp"":64635.10000000149},{""type"":""chart_hover"",""data"":{""x"":430,""y"":158,""timestamp"":64651.70000000298},""timestamp"":64651.70000000298},{""type"":""chart_hover"",""data"":{""x"":432,""y"":159,""timestamp"":64668.80000000447},""timestamp"":64668.80000000447},{""type"":""chart_hover"",""data"":{""x"":434,""y"":159,""timestamp"":64688},""timestamp"":64688},{""type"":""chart_hover"",""data"":{""x"":435,""y"":160,""timestamp"":64701.40000000596},""timestamp"":64701.40000000596},{""type"":""chart_hover"",""data"":{""x"":438,""y"":160,""timestamp"":64718},""timestamp"":64718},{""type"":""chart_hover"",""data"":{""x"":442,""y"":162,""timestamp"":64734.80000000447},""timestamp"":64734.80000000447},{""type"":""chart_hover"",""data"":{""x"":445,""y"":163,""timestamp"":64751.20000000298},""timestamp"":64751.20000000298},{""type"":""chart_hover"",""data"":{""x"":452,""y"":164,""timestamp"":64768.20000000298},""timestamp"":64768.20000000298},{""type"":""chart_hover"",""data"":{""x"":461,""y"":166,""timestamp"":64785},""timestamp"":64785},{""type"":""chart_hover"",""data"":{""x"":471,""y"":167,""timestamp"":64801.70000000298},""timestamp"":64801.70000000298},{""type"":""chart_hover"",""data"":{""x"":484,""y"":170,""timestamp"":64817.90000000596},""timestamp"":64817.90000000596},{""type"":""chart_hover"",""data"":{""x"":497,""y"":172,""timestamp"":64834.90000000596},""timestamp"":64834.90000000596},{""type"":""chart_hover"",""data"":{""x"":512,""y"":173,""timestamp"":64851.60000000149},""timestamp"":64851.60000000149},{""type"":""chart_hover"",""data"":{""x"":527,""y"":175,""timestamp"":64868.20000000298},""timestamp"":64868.20000000298},{""type"":""chart_hover"",""data"":{""x"":540,""y"":177,""timestamp"":64884.70000000298},""timestamp"":64884.70000000298},{""type"":""chart_hover"",""data"":{""x"":550,""y"":179,""timestamp"":64901.80000000447},""timestamp"":64901.80000000447},{""type"":""chart_hover"",""data"":{""x"":558,""y"":180,""timestamp"":64918.20000000298},""timestamp"":64918.20000000298},{""type"":""chart_hover"",""data"":{""x"":566,""y"":180,""timestamp"":64934.80000000447},""timestamp"":64934.90000000596},{""type"":""chart_hover"",""data"":{""x"":574,""y"":180,""timestamp"":64951.70000000298},""timestamp"":64951.70000000298},{""type"":""chart_hover"",""data"":{""x"":588,""y"":180,""timestamp"":64968},""timestamp"":64968},{""type"":""chart_hover"",""data"":{""x"":597,""y"":182,""timestamp"":64984.70000000298},""timestamp"":64984.70000000298},{""type"":""chart_hover"",""data"":{""x"":602,""y"":182,""timestamp"":65001.5},""timestamp"":65001.5},{""type"":""chart_hover"",""data"":{""x"":605,""y"":182,""timestamp"":65018.30000000447},""timestamp"":65018.30000000447},{""type"":""chart_hover"",""data"":{""x"":606,""y"":182,""timestamp"":65034.90000000596},""timestamp"":65034.90000000596},{""type"":""chart_hover"",""data"":{""x"":607,""y"":182,""timestamp"":65051.5},""timestamp"":65051.5},{""type"":""chart_hover"",""data"":{""x"":608,""y"":182,""timestamp"":65068.30000000447},""timestamp"":65068.30000000447},{""type"":""chart_hover"",""data"":{""x"":609,""y"":182,""timestamp"":65088.40000000596},""timestamp"":65088.40000000596},{""type"":""chart_hover"",""data"":{""x"":610,""y"":182,""timestamp"":65112.5},""timestamp"":65112.5},{""type"":""chart_hover"",""data"":{""x"":611,""y"":182,""timestamp"":65127.90000000596},""timestamp"":65127.90000000596},{""type"":""chart_hover"",""data"":{""x"":612,""y"":182,""timestamp"":65136.70000000298},""timestamp"":65136.70000000298},{""type"":""chart_hover"",""data"":{""x"":613,""y"":182,""timestamp"":65153.10000000149},""timestamp"":65153.10000000149},{""type"":""chart_hover"",""data"":{""x"":614,""y"":182,""timestamp"":65168.10000000149},""timestamp"":65168.10000000149},{""type"":""chart_hover"",""data"":{""x"":616,""y"":182,""timestamp"":65184.60000000149},""timestamp"":65184.60000000149},{""type"":""chart_hover"",""data"":{""x"":617,""y"":180,""timestamp"":65201.70000000298},""timestamp"":65201.70000000298},{""type"":""chart_hover"",""data"":{""x"":619,""y"":180,""timestamp"":65218},""timestamp"":65218},{""type"":""chart_hover"",""data"":{""x"":622,""y"":178,""timestamp"":65234.80000000447},""timestamp"":65234.80000000447},{""type"":""chart_hover"",""data"":{""x"":624,""y"":178,""timestamp"":65251.60000000149},""timestamp"":65251.60000000149},{""type"":""chart_hover"",""data"":{""x"":627,""y"":178,""timestamp"":65268.5},""timestamp"":65268.5},{""type"":""chart_hover"",""data"":{""x"":631,""y"":177,""timestamp"":65285},""timestamp"":65285},{""type"":""chart_hover"",""data"":{""x"":634,""y"":176,""timestamp"":65301.40000000596},""timestamp"":65301.40000000596},{""type"":""chart_hover"",""data"":{""x"":638,""y"":176,""timestamp"":65318.30000000447},""timestamp"":65318.30000000447},{""type"":""chart_hover"",""data"":{""x"":641,""y"":174,""timestamp"":65334.60000000149},""timestamp"":65334.70000000298},{""type"":""chart_hover"",""data"":{""x"":643,""y"":174,""timestamp"":65351.30000000447},""timestamp"":65351.30000000447},{""type"":""chart_hover"",""data"":{""x"":646,""y"":174,""timestamp"":65368.10000000149},""timestamp"":65368.10000000149},{""type"":""chart_hover"",""data"":{""x"":650,""y"":174,""timestamp"":65384.60000000149},""timestamp"":65384.60000000149},{""type"":""chart_hover"",""data"":{""x"":653,""y"":174,""timestamp"":65401.20000000298},""timestamp"":65401.20000000298},{""type"":""chart_hover"",""data"":{""x"":655,""y"":173,""timestamp"":65418},""timestamp"":65418},{""type"":""chart_hover"",""data"":{""x"":658,""y"":172,""timestamp"":65434.80000000447},""timestamp"":65434.80000000447},{""type"":""chart_hover"",""data"":{""x"":659,""y"":172,""timestamp"":65451.10000000149},""timestamp"":65451.10000000149},{""type"":""chart_hover"",""data"":{""x"":662,""y"":171,""timestamp"":65467.40000000596},""timestamp"":65467.40000000596},{""type"":""chart_hover"",""data"":{""x"":663,""y"":171,""timestamp"":65518.30000000447},""timestamp"":65518.30000000447},{""type"":""chart_hover"",""data"":{""x"":664,""y"":170,""timestamp"":65544.20000000298},""timestamp"":65544.20000000298},{""type"":""chart_hover"",""data"":{""x"":662,""y"":169,""timestamp"":65633.20000000298},""timestamp"":65633.20000000298},{""type"":""chart_hover"",""data"":{""x"":662,""y"":168,""timestamp"":65640.40000000596},""timestamp"":65640.40000000596},{""type"":""chart_hover"",""data"":{""x"":660,""y"":168,""timestamp"":65684.70000000298},""timestamp"":65684.70000000298},{""type"":""chart_hover"",""data"":{""x"":659,""y"":167,""timestamp"":65701.70000000298},""timestamp"":65701.70000000298},{""type"":""chart_hover"",""data"":{""x"":658,""y"":167,""timestamp"":65718.10000000149},""timestamp"":65718.10000000149},{""type"":""chart_hover"",""data"":{""x"":656,""y"":166,""timestamp"":65768.10000000149},""timestamp"":65768.10000000149},{""type"":""chart_hover"",""data"":{""x"":655,""y"":165,""timestamp"":65817.90000000596},""timestamp"":65817.90000000596},{""type"":""chart_hover"",""data"":{""x"":654,""y"":165,""timestamp"":65834.80000000447},""timestamp"":65834.80000000447},{""type"":""chart_hover"",""data"":{""x"":654,""y"":164,""timestamp"":66024.90000000596},""timestamp"":66024.90000000596},{""type"":""chart_hover"",""data"":{""x"":655,""y"":164,""timestamp"":66127},""timestamp"":66127},{""type"":""chart_hover"",""data"":{""x"":656,""y"":164,""timestamp"":66167.60000000149},""timestamp"":66167.70000000298},{""type"":""chart_hover"",""data"":{""x"":657,""y"":164,""timestamp"":66185},""timestamp"":66185},{""type"":""chart_hover"",""data"":{""x"":658,""y"":164,""timestamp"":66234.40000000596},""timestamp"":66234.40000000596},{""type"":""chart_hover"",""data"":{""x"":659,""y"":164,""timestamp"":66284.40000000596},""timestamp"":66284.40000000596},{""type"":""chart_hover"",""data"":{""x"":660,""y"":164,""timestamp"":66301.40000000596},""timestamp"":66301.40000000596},{""type"":""chart_hover"",""data"":{""x"":660,""y"":163,""timestamp"":66351.30000000447},""timestamp"":66351.30000000447},{""type"":""chart_hover"",""data"":{""x"":661,""y"":163,""timestamp"":66367.70000000298},""timestamp"":66367.70000000298},{""type"":""chart_hover"",""data"":{""x"":661,""y"":162,""timestamp"":67535.80000000447},""timestamp"":67535.80000000447},{""type"":""chart_hover"",""data"":{""x"":662,""y"":162,""timestamp"":68569.90000000596},""timestamp"":68569.90000000596},{""type"":""chart_hover"",""data"":{""x"":665,""y"":166,""timestamp"":68583.70000000298},""timestamp"":68583.70000000298},{""type"":""chart_hover"",""data"":{""x"":671,""y"":173,""timestamp"":68600.10000000149},""timestamp"":68600.10000000149},{""type"":""chart_hover"",""data"":{""x"":682,""y"":182,""timestamp"":68616.70000000298},""timestamp"":68616.70000000298},{""type"":""chart_hover"",""data"":{""x"":694,""y"":192,""timestamp"":68633.5},""timestamp"":68633.5},{""type"":""chart_hover"",""data"":{""x"":704,""y"":200,""timestamp"":68650.5},""timestamp"":68650.5},{""type"":""chart_hover"",""data"":{""x"":713,""y"":206,""timestamp"":68666.80000000447},""timestamp"":68666.80000000447},{""type"":""chart_hover"",""data"":{""x"":722,""y"":212,""timestamp"":68683.5},""timestamp"":68683.5},{""type"":""chart_hover"",""data"":{""x"":726,""y"":216,""timestamp"":68700.30000000447},""timestamp"":68700.30000000447},{""type"":""chart_hover"",""data"":{""x"":729,""y"":219,""timestamp"":68717.20000000298},""timestamp"":68717.20000000298},{""type"":""chart_hover"",""data"":{""x"":730,""y"":222,""timestamp"":68733.90000000596},""timestamp"":68733.90000000596},{""type"":""chart_hover"",""data"":{""x"":730,""y"":228,""timestamp"":68750.70000000298},""timestamp"":68750.70000000298},{""type"":""chart_hover"",""data"":{""x"":726,""y"":236,""timestamp"":68767.60000000149},""timestamp"":68767.60000000149},{""type"":""chart_hover"",""data"":{""x"":720,""y"":246,""timestamp"":68783.5},""timestamp"":68783.5},{""type"":""chart_hover"",""data"":{""x"":714,""y"":255,""timestamp"":68800},""timestamp"":68800},{""type"":""chart_hover"",""data"":{""x"":712,""y"":258,""timestamp"":68816.60000000149},""timestamp"":68816.60000000149},{""type"":""chart_hover"",""data"":{""x"":711,""y"":261,""timestamp"":68833.60000000149},""timestamp"":68833.60000000149},{""type"":""chart_hover"",""data"":{""x"":710,""y"":264,""timestamp"":68850.20000000298},""timestamp"":68850.20000000298},{""type"":""chart_hover"",""data"":{""x"":708,""y"":265,""timestamp"":68866.70000000298},""timestamp"":68866.80000000447},{""type"":""chart_hover"",""data"":{""x"":708,""y"":267,""timestamp"":68883.5},""timestamp"":68883.5},{""type"":""chart_hover"",""data"":{""x"":707,""y"":268,""timestamp"":68900.30000000447},""timestamp"":68900.30000000447},{""type"":""chart_hover"",""data"":{""x"":707,""y"":269,""timestamp"":68917.40000000596},""timestamp"":68917.40000000596},{""type"":""chart_hover"",""data"":{""x"":707,""y"":270,""timestamp"":68933.60000000149},""timestamp"":68933.60000000149},{""type"":""chart_hover"",""data"":{""x"":707,""y"":271,""timestamp"":68983.80000000447},""timestamp"":68983.80000000447},{""type"":""chart_hover"",""data"":{""x"":707,""y"":272,""timestamp"":69072.5},""timestamp"":69072.5},{""type"":""chart_hover"",""data"":{""x"":707,""y"":271,""timestamp"":69333.5},""timestamp"":69333.5},{""type"":""chart_hover"",""data"":{""x"":707,""y"":270,""timestamp"":69399.90000000596},""timestamp"":69399.90000000596},{""type"":""chart_hover"",""data"":{""x"":707,""y"":268,""timestamp"":69583.20000000298},""timestamp"":69583.20000000298},{""type"":""chart_hover"",""data"":{""x"":708,""y"":268,""timestamp"":70017.20000000298},""timestamp"":70017.20000000298},{""type"":""chart_hover"",""data"":{""x"":708,""y"":267,""timestamp"":71337.20000000298},""timestamp"":71337.20000000298},{""type"":""chart_hover"",""data"":{""x"":710,""y"":266,""timestamp"":73088.60000000149},""timestamp"":73088.60000000149},{""type"":""chart_hover"",""data"":{""x"":711,""y"":266,""timestamp"":74087},""timestamp"":74087},{""type"":""chart_hover"",""data"":{""x"":712,""y"":266,""timestamp"":74120.70000000298},""timestamp"":74120.70000000298},{""type"":""chart_leave"",""data"":{""timestamp"":74170.80000000447},""timestamp"":74170.90000000596},{""type"":""chart_enter"",""data"":{""timestamp"":75986.20000000298},""timestamp"":75986.20000000298},{""type"":""chart_hover"",""data"":{""x"":620,""y"":322,""timestamp"":75986.30000000447},""timestamp"":75986.30000000447},{""type"":""chart_hover"",""data"":{""x"":621,""y"":322,""timestamp"":76319.90000000596},""timestamp"":76319.90000000596},{""type"":""chart_hover"",""data"":{""x"":624,""y"":321,""timestamp"":76347.10000000149},""timestamp"":76347.10000000149},{""type"":""chart_hover"",""data"":{""x"":628,""y"":318,""timestamp"":76363.60000000149},""timestamp"":76363.60000000149},{""type"":""chart_hover"",""data"":{""x"":644,""y"":312,""timestamp"":76380.10000000149},""timestamp"":76380.10000000149},{""type"":""chart_hover"",""data"":{""x"":670,""y"":299,""timestamp"":76397.30000000447},""timestamp"":76397.30000000447},{""type"":""chart_hover"",""data"":{""x"":705,""y"":278,""timestamp"":76414},""timestamp"":76414},{""type"":""chart_hover"",""data"":{""x"":721,""y"":269,""timestamp"":76419.30000000447},""timestamp"":76419.30000000447},{""type"":""chart_hover"",""data"":{""x"":737,""y"":260,""timestamp"":76430.90000000596},""timestamp"":76430.90000000596},{""type"":""chart_hover"",""data"":{""x"":760,""y"":244,""timestamp"":76447.5},""timestamp"":76447.5},{""type"":""chart_hover"",""data"":{""x"":782,""y"":230,""timestamp"":76464.20000000298},""timestamp"":76464.20000000298},{""type"":""chart_hover"",""data"":{""x"":791,""y"":223,""timestamp"":76480.80000000447},""timestamp"":76480.80000000447},{""type"":""chart_hover"",""data"":{""x"":794,""y"":220,""timestamp"":76497.5},""timestamp"":76497.5},{""type"":""chart_hover"",""data"":{""x"":796,""y"":218,""timestamp"":76514.40000000596},""timestamp"":76514.40000000596},{""type"":""chart_hover"",""data"":{""x"":796,""y"":217,""timestamp"":76530.80000000447},""timestamp"":76530.80000000447},{""type"":""chart_hover"",""data"":{""x"":795,""y"":214,""timestamp"":76547.70000000298},""timestamp"":76547.70000000298},{""type"":""chart_hover"",""data"":{""x"":792,""y"":213,""timestamp"":76564.10000000149},""timestamp"":76564.20000000298},{""type"":""chart_hover"",""data"":{""x"":789,""y"":212,""timestamp"":76580.80000000447},""timestamp"":76580.80000000447},{""type"":""chart_hover"",""data"":{""x"":784,""y"":210,""timestamp"":76598},""timestamp"":76598},{""type"":""chart_hover"",""data"":{""x"":780,""y"":208,""timestamp"":76614.20000000298},""timestamp"":76614.20000000298},{""type"":""chart_hover"",""data"":{""x"":776,""y"":207,""timestamp"":76630.40000000596},""timestamp"":76630.40000000596},{""type"":""chart_hover"",""data"":{""x"":772,""y"":206,""timestamp"":76647.10000000149},""timestamp"":76647.10000000149},{""type"":""chart_hover"",""data"":{""x"":764,""y"":206,""timestamp"":76664.30000000447},""timestamp"":76664.30000000447},{""type"":""chart_hover"",""data"":{""x"":757,""y"":204,""timestamp"":76680.60000000149},""timestamp"":76680.60000000149},{""type"":""chart_hover"",""data"":{""x"":752,""y"":204,""timestamp"":76697.40000000596},""timestamp"":76697.5},{""type"":""chart_hover"",""data"":{""x"":748,""y"":204,""timestamp"":76714.10000000149},""timestamp"":76714.10000000149},{""type"":""chart_hover"",""data"":{""x"":742,""y"":204,""timestamp"":76730.80000000447},""timestamp"":76730.80000000447},{""type"":""chart_hover"",""data"":{""x"":737,""y"":204,""timestamp"":76747.80000000447},""timestamp"":76747.80000000447},{""type"":""chart_hover"",""data"":{""x"":732,""y"":203,""timestamp"":76764.20000000298},""timestamp"":76764.20000000298},{""type"":""chart_hover"",""data"":{""x"":726,""y"":201,""timestamp"":76781.30000000447},""timestamp"":76781.30000000447},{""type"":""chart_hover"",""data"":{""x"":723,""y"":200,""timestamp"":76798},""timestamp"":76798},{""type"":""chart_hover"",""data"":{""x"":720,""y"":198,""timestamp"":76814.60000000149},""timestamp"":76814.60000000149},{""type"":""chart_hover"",""data"":{""x"":717,""y"":197,""timestamp"":76830.60000000149},""timestamp"":76830.60000000149},{""type"":""chart_hover"",""data"":{""x"":714,""y"":196,""timestamp"":76847.40000000596},""timestamp"":76847.40000000596},{""type"":""chart_hover"",""data"":{""x"":707,""y"":193,""timestamp"":76863.90000000596},""timestamp"":76863.90000000596},{""type"":""chart_hover"",""data"":{""x"":702,""y"":191,""timestamp"":76880.60000000149},""timestamp"":76880.60000000149},{""type"":""chart_hover"",""data"":{""x"":696,""y"":189,""timestamp"":76897.40000000596},""timestamp"":76897.40000000596},{""type"":""chart_hover"",""data"":{""x"":692,""y"":187,""timestamp"":76914.20000000298},""timestamp"":76914.20000000298},{""type"":""chart_hover"",""data"":{""x"":688,""y"":184,""timestamp"":76930.70000000298},""timestamp"":76930.70000000298},{""type"":""chart_hover"",""data"":{""x"":686,""y"":183,""timestamp"":76947.60000000149},""timestamp"":76947.60000000149},{""type"":""chart_hover"",""data"":{""x"":684,""y"":182,""timestamp"":76964.40000000596},""timestamp"":76964.40000000596},{""type"":""chart_hover"",""data"":{""x"":681,""y"":18