city_a_estimate,city_b_estimate,click_events,comprehension_ease,condition,condition_id,condition_name,confidence_label,confidence_rating,data_trust,display_format,end_time,failed_audio,failed_images,failed_video,hover_events,interaction_log,internal_node_id,participant_id,percent_score,phase,phase1_complete,phase2_complete,predictions_shown,probability_estimate,question_order,response,responses,round,rt,rt_total,skeptical_rating,slider_moved,start_time,stimulus,success,time_elapsed,time_on_viz,timeout,total_interactions,total_questions,total_score,travel_choice,trial_index,trial_type,trust_composite,usability_composite,usability_difficulty,view_history,visualization_literacy_score,visualization_shown
,,,,,,,,,,,,"[]","[]","[]",,,0.0-0.0,5f4f9bc1f7598f06b2dc816f,,,,,,,,,,,,,,,,,true,574,,false,,,,,0,preload,,,,,,
,,,,,,,,,,,,,,,,,0.0-1.0,5f4f9bc1f7598f06b2dc816f,,,,,,,,0,,,9803,,,,,"
	        <div class=""welcome-screen"">
	            <h1>Air Quality Prediction Study</h1>
	            <p>Welcome! You are about to participate in a research study about how people make decisions using air quality predictions. This study examines how different ways of presenting prediction information affect trust and decision-making. The study will take approximately 15 minutes.</p>
	            <div class=""study-info"">
	                <h3>What you'll do:</h3>
	                <ul>
	                    <li>Complete a brief assessment of visualization understanding</li>
	                    <li>Make predictions about air quality in two cities</li>
	                    <li>Answer questions about your confidence and trust</li>
						<li>Report basic demographic data</li>
	                </ul>
	            </div>
	        </div>
	    ",,10380,,,,,,,1,html-button-response,,,,,,
,,,,,,,,,,,,,,,,,0.0-2.0,5f4f9bc1f7598f06b2dc816f,,,,,,,,,,,2040,,,,,,true,13434,,,,,,,2,fullscreen,,,,,,
,,,,,,,,,,,,,,,,,0.0-3.0,5f4f9bc1f7598f06b2dc816f,,,,,,,,"{""participant_id"":""5f4f9bc1f7598f06b2dc816f""}",,,3833,,,,,,,17271,,,,,,,3,survey-text,,,,,,
,,,,,,,,,,,,,,,,,0.0-4.0,5f4f9bc1f7598f06b2dc816f,,,,,,,,0,,,7277,,,,,"
	        <div class=""consent-form"">
	            <h2>Consent Form</h2>
	            <div class=""consent-header"">
	                <p><strong>Principal Investigator:</strong> Dr. Cindy Xiong Bearfield, Assistant Professor</p>
	                <p><strong>Study Title:</strong> Trusting What We See: Effect of Interactivity in Visual Data Analysis</p>
	                <p><strong>Supported By:</strong> Georgia Institute of Technology</p>
	            </div>
	            
	            <div class=""consent-details"">
	                <h3>WHAT IS THIS FORM?</h3>
	                <p>This form is called a Consent Form. It will give you information about the study so you can make an informed decision about participation in this research. We encourage you to take some time to think this over and ask questions now and at any other time. If you decide to participate, you will be asked to sign this form and you will be given a copy for your records.</p>

	                <h3>WHAT ARE SOME OF THE IMPORTANT ASPECTS OF THIS RESEARCH STUDY THAT I SHOULD BE AWARE OF?</h3>
	                <ul>
	                    <li>Whether or not you take part is up to you.</li>
	                    <li>You can choose not to take part.</li>
	                    <li>You can agree to take part and later change your mind.</li>
	                    <li>Your decision will not be held against you.</li>
	                </ul>

	                <h3>WHY ARE WE DOING THIS RESEARCH STUDY?</h3>
	                <p>The purpose of our study is to explore the visualization design space so we can understand how people perceive, interpret, and make decisions from visualizations. The results from this study can help us design visualizations and visualization guidelines to help people better communicate and understand data.</p>

	                <h3>WHO CAN PARTICIPATE IN THIS RESEARCH STUDY?</h3>
	                <p>Participants in this study must be at least 18 years of age or older and have general familiarity with using web-based systems. Participants currently outside of the U.S. cannot participate in this study (e.g. in the European Union or China).</p>

	                <h3>WHAT COMPENSATION I WILL RECEIVE?</h3>
	                <p>You will receive payment through Prolific worth $12/hour for participating in this study. We expect this study to take less than 20 minutes. Your participation is entirely voluntary. You are free to withdraw at any time, and if you do, you will receive partial payment for your time.</p>

	                <h3>HOW MANY PEOPLE WILL PARTICIPATE?</h3>
	                <p>We expect about 200 people will be in this research study.</p>

	                <h3>WHAT WILL I BE ASKED TO DO AND HOW MUCH TIME WILL IT TAKE?</h3>
	                <p>We will show you several data visualizations or components of a visualization and ask you to perform a visual task with the visualization on a computer screen, such as counting, searching, recognizing, memorizing, or describing the information presented to you. We may also ask you to fill out questionnaires concerning your thoughts regarding the visualization you saw. We expect that you will be in this research study to take between 15 and 60 minutes. We expect this study to be a one-off session and will not contact you regarding the study itself in the future.</p>

	                <h3>WILL BEING IN THIS RESEARCH STUDY HELP ME IN ANY WAY?</h3>
	                <p>You are not likely to have any direct benefit from being in this research study. The potential benefits to you from participation may include learning about how data visualization research is conducted, and you may learn about issues of current interest in data visualization and psychology.</p>

	                <h3>WHAT ARE MY RISKS OF BEING IN THIS RESEARCH STUDY?</h3>
	                <p>Your participation in this study does not involve any risks other than what you would encounter in daily life. In particular, you may experience fatigue or boredom, however, you may take breaks between tasks. The effects of participating should be comparable to those you would experience from viewing a computer monitor and using a keyboard. You may withdraw at any time.</p>

	                <h3>HOW WILL MY PERSONAL INFORMATION BE PROTECTED?</h3>
	                <p>We will comply with any applicable laws and regulations regarding confidentiality. To make sure that this research is being carried out in the proper way, the Georgia Institute of Technology IRB may review study records. The Office of Human Research Protections may also look at study records.</p>
	                <p>Efforts will be made to limit the use and disclosure of your personal information, including research study records, to people who need to review this information. We cannot promise complete secrecy. Organizations that may inspect and copy your information include the IRB and other representatives of this institution. Please be notified that our data privacy policy is based on U.S. regulations. Participants who are out of the U.S. might be excluded due to different data privacy requirements.</p>
	                <p><strong>Data Sharing:</strong> De-identified data from this study will be shared among the GATech research team, as well as the research community at large to advance science and health. We will remove or code any personal information that could identify you before files are shared with other researchers to ensure that, by current scientific standards and known methods, no one will be able to identify you from the information we share. Despite these measures, we cannot guarantee the anonymity of your personal data.</p>

	                <h3>WILL I BE GIVEN ANY MONEY OR OTHER COMPENSATION FOR BEING IN THIS RESEARCH STUDY?</h3>
	                <p>If you agree to take part in this research study, we will provide compensation. You will be paid in accordance with the stated policies of Amazon Mechanical Turk and/or Prolific.com. Payment will be made upon completion and acceptance of tasks that you have agreed to complete and you will be paid via Mechanical Turk or Prolific.com. If you choose to withdraw from the study, you will not be compensated for your participation.</p>

	                <h3>WHAT ELSE DO I NEED TO KNOW?</h3>
	                <p>We might be using attention check questions in our surveys. If you miss 2 or more attention check questions, your HIT will not be accepted and you will not be compensated.</p>

	                <h3>WHO CAN I TALK TO IF I HAVE QUESTIONS?</h3>
	                <p>If you have any questions about the content of this research project, you may contact Dr. Cindy Xiong Bearfield at cxiong@gatech.edu, or contact Songwen Hu at shu343@gatech.edu. If you have any questions about your rights as a research subject, you may also contact Georgia Institute of Technology Office of Research Integrity Assurance at IRB@gatech.edu.</p>

	                <h3>WHAT HAPPENS IF I SAY YES, BUT I CHANGE MY MIND LATER?</h3>
	                <p>You can decide not to participate in this research or you can start and then decide to leave the research at any time and it will not be held against you. To do so, simply exit the experiment. Any data already collected will not be saved.</p>

	                <p><strong>By clicking ""I agree"" below you are indicating that you are at least 18 years old, currently in the U.S., have read this consent form, and agree to participate in this research study. Please print a copy of this page for your records.</strong></p>
	            </div>
	        </div>
	    ",,24551,,,,,,,4,html-button-response,,,,,,
,,,,,,,,,,,,,,,,,0.0-5.0,5f4f9bc1f7598f06b2dc816f,,,,,,,,0,,,8591,,,,,"
	        <div class=""vis-literacy-intro"">
	            <h2>Visualization Assessment</h2>
	            <p>Before we begin the main study, we'd like to assess your ability to read and interpret data visualizations.</p>
	            
	            <div class=""assessment-info"">
	                <h3>What you'll do:</h3>
	                <ul>
	                    <li>View 12 different data visualizations (charts and graphs)</li>
	                    <li>Answer questions about what each visualization shows</li>
	                    <li>Take your time to examine each chart carefully</li>
	                </ul>
	                
	                <p><strong>This assessment will take approximately 5-10 minutes.</strong></p>
	                <p>There are no right or wrong interpretations - we're interested in how you read visualizations.</p>
	            </div>
	        </div>
	    ",,33143,,,,,,,5,html-button-response,,,,,,
,,,,,condition_6_pi_to_ensemble,PI → Ensemble,,,,,,,,,,,0.0-6.0,5f4f9bc1f7598f06b2dc816f,83,,,,,,,,"[{""question_id"":""minivlat_1"",""question_type"":""treemap"",""question_text"":""eBay is nested in the Software category."",""response"":1,""correct_answer"":1,""is_correct"":true,""rt"":28174.69999998808},{""question_id"":""minivlat_2"",""question_type"":""stacked_100_bar"",""question_text"":""Which country has the lowest proportion of Gold medals?"",""response"":1,""correct_answer"":1,""is_correct"":true,""rt"":21982.80000001192},{""question_id"":""minivlat_3"",""question_type"":""histogram"",""question_text"":""What distance have customers traveled the most?"",""response"":1,""correct_answer"":1,""is_correct"":true,""rt"":27799.69999998808},{""question_id"":""minivlat_4"",""question_type"":""choropleth"",""question_text"":""In 2020, the unemployment rate for Washington (WA) was higher than that of Wisconsin (WI)."",""response"":0,""correct_answer"":0,""is_correct"":true,""rt"":29517.80000001192},{""question_id"":""minivlat_5"",""question_type"":""pie_chart"",""question_text"":""What is the approximate global smartphone market share of Samsung?"",""response"":0,""correct_answer"":0,""is_correct"":true,""rt"":20448.19999998808},{""question_id"":""minivlat_6"",""question_type"":""bubble_chart"",""question_text"":""Which has the largest number of metro stations?"",""response"":1,""correct_answer"":1,""is_correct"":true,""rt"":25007.600000023842},{""question_id"":""minivlat_7"",""question_type"":""stacked_bar"",""question_text"":""What is the cost of peanuts in Seoul?"",""response"":0,""correct_answer"":1,""is_correct"":false,""rt"":27618.399999976158},{""question_id"":""minivlat_8"",""question_type"":""line_chart"",""question_text"":""What was the price of a barrel of oil in February 2020?"",""response"":0,""correct_answer"":0,""is_correct"":true,""rt"":13268.199999988079},{""question_id"":""minivlat_9"",""question_type"":""bar_chart"",""question_text"":""What is the average internet speed in Japan?"",""response"":1,""correct_answer"":1,""is_correct"":true,""rt"":28021.30000001192},{""question_id"":""minivlat_10"",""question_type"":""area_chart"",""question_text"":""What was the average price of a pound of coffee in October 2019?"",""response"":0,""correct_answer"":0,""is_correct"":true,""rt"":13139.600000023842},{""question_id"":""minivlat_11"",""question_type"":""stacked_area"",""question_text"":""What was the ratio of girls named \""Isla\"" to girls named \""Amelia\"" in 2012 in the UK?"",""response"":2,""correct_answer"":1,""is_correct"":false,""rt"":129199.79999995232},{""question_id"":""minivlat_12"",""question_type"":""scatter_plot"",""question_text"":""There is a negative relationship between the height and weight of the 85 males."",""response"":1,""correct_answer"":1,""is_correct"":true,""rt"":37463.200000047684}]",,,401641.3000000119,,,,,,434786,,,,12,10,,6,vis-literacy,,,,,,
,,,,,,,,,,,,,,,,,0.0-7.0,5f4f9bc1f7598f06b2dc816f,,,,,,,,,,,34864,,,,,,,469653,,,,,,,7,instructions,,,,"[{""page_index"":0,""viewing_time"":34864}]",,
86,81,,,,condition_0_historical,Historical Only,Somewhat Uncertain,3,,historical_only,,,,,,"[{""type"":""chart_enter"",""data"":{""timestamp"":463.2999999523163},""timestamp"":463.39999997615814},{""type"":""chart_hover"",""data"":{""x"":670,""y"":429,""timestamp"":882.7999999523163},""timestamp"":882.7999999523163},{""type"":""chart_hover"",""data"":{""x"":671,""y"":429,""timestamp"":893},""timestamp"":893},{""type"":""chart_hover"",""data"":{""x"":671,""y"":428,""timestamp"":911.0999999642372},""timestamp"":911.1999999880791},{""type"":""chart_hover"",""data"":{""x"":672,""y"":428,""timestamp"":920.8999999761581},""timestamp"":920.8999999761581},{""type"":""chart_hover"",""data"":{""x"":673,""y"":427,""timestamp"":933.6999999880791},""timestamp"":933.6999999880791},{""type"":""chart_hover"",""data"":{""x"":673,""y"":426,""timestamp"":938.5},""timestamp"":938.5},{""type"":""chart_hover"",""data"":{""x"":674,""y"":426,""timestamp"":946.1999999880791},""timestamp"":946.1999999880791},{""type"":""chart_hover"",""data"":{""x"":675,""y"":425,""timestamp"":969.6999999880791},""timestamp"":969.6999999880791},{""type"":""chart_hover"",""data"":{""x"":676,""y"":424,""timestamp"":982.7999999523163},""timestamp"":982.8999999761581},{""type"":""chart_hover"",""data"":{""x"":677,""y"":424,""timestamp"":990.0999999642372},""timestamp"":990.1999999880791},{""type"":""chart_hover"",""data"":{""x"":677,""y"":423,""timestamp"":1000.6999999880791},""timestamp"":1000.7999999523163},{""type"":""chart_hover"",""data"":{""x"":677,""y"":422,""timestamp"":1018.8999999761581},""timestamp"":1018.8999999761581},{""type"":""chart_hover"",""data"":{""x"":678,""y"":422,""timestamp"":1027.5},""timestamp"":1027.5},{""type"":""chart_hover"",""data"":{""x"":679,""y"":421,""timestamp"":1035.699999988079},""timestamp"":1035.699999988079},{""type"":""chart_hover"",""data"":{""x"":680,""y"":420,""timestamp"":1047.5},""timestamp"":1047.5},{""type"":""chart_hover"",""data"":{""x"":681,""y"":420,""timestamp"":1070.3999999761581},""timestamp"":1070.5},{""type"":""chart_hover"",""data"":{""x"":681,""y"":419,""timestamp"":1087.0999999642372},""timestamp"":1087.0999999642372},{""type"":""chart_hover"",""data"":{""x"":681,""y"":418,""timestamp"":1125.2999999523163},""timestamp"":1125.2999999523163},{""type"":""chart_hover"",""data"":{""x"":681,""y"":417,""timestamp"":1165.699999988079},""timestamp"":1165.699999988079},{""type"":""chart_hover"",""data"":{""x"":681,""y"":416,""timestamp"":1358.699999988079},""timestamp"":1358.8999999761581},{""type"":""chart_hover"",""data"":{""x"":681,""y"":415,""timestamp"":1382.3999999761581},""timestamp"":1382.3999999761581},{""type"":""chart_hover"",""data"":{""x"":681,""y"":414,""timestamp"":1389.5999999642372},""timestamp"":1389.5999999642372},{""type"":""chart_hover"",""data"":{""x"":681,""y"":412,""timestamp"":1409.7999999523163},""timestamp"":1409.7999999523163},{""type"":""chart_hover"",""data"":{""x"":681,""y"":411,""timestamp"":1418.2999999523163},""timestamp"":1418.2999999523163},{""type"":""chart_hover"",""data"":{""x"":681,""y"":410,""timestamp"":1426.7999999523163},""timestamp"":1426.7999999523163},{""type"":""chart_hover"",""data"":{""x"":681,""y"":407,""timestamp"":1436.199999988079},""timestamp"":1436.199999988079},{""type"":""chart_hover"",""data"":{""x"":681,""y"":406,""timestamp"":1443.8999999761581},""timestamp"":1443.8999999761581},{""type"":""chart_hover"",""data"":{""x"":681,""y"":405,""timestamp"":1456.5999999642372},""timestamp"":1456.5999999642372},{""type"":""chart_hover"",""data"":{""x"":681,""y"":402,""timestamp"":1465.8999999761581},""timestamp"":1465.8999999761581},{""type"":""chart_hover"",""data"":{""x"":681,""y"":400,""timestamp"":1474.0999999642372},""timestamp"":1474.0999999642372},{""type"":""chart_hover"",""data"":{""x"":681,""y"":397,""timestamp"":1481.5},""timestamp"":1481.5},{""type"":""chart_hover"",""data"":{""x"":681,""y"":395,""timestamp"":1496.2999999523163},""timestamp"":1496.2999999523163},{""type"":""chart_hover"",""data"":{""x"":682,""y"":394,""timestamp"":1497.2999999523163},""timestamp"":1497.2999999523163},{""type"":""chart_hover"",""data"":{""x"":682,""y"":393,""timestamp"":1507.5999999642372},""timestamp"":1507.5999999642372},{""type"":""chart_hover"",""data"":{""x"":683,""y"":391,""timestamp"":1514.5},""timestamp"":1514.5},{""type"":""chart_hover"",""data"":{""x"":684,""y"":390,""timestamp"":1521.5},""timestamp"":1521.5},{""type"":""chart_hover"",""data"":{""x"":684,""y"":389,""timestamp"":1530.699999988079},""timestamp"":1530.699999988079},{""type"":""chart_hover"",""data"":{""x"":684,""y"":388,""timestamp"":1537.3999999761581},""timestamp"":1537.3999999761581},{""type"":""chart_hover"",""data"":{""x"":684,""y"":387,""timestamp"":1544.5},""timestamp"":1544.5},{""type"":""chart_hover"",""data"":{""x"":685,""y"":386,""timestamp"":1552.199999988079},""timestamp"":1552.199999988079},{""type"":""chart_hover"",""data"":{""x"":686,""y"":385,""timestamp"":1576.3999999761581},""timestamp"":1576.3999999761581},{""type"":""chart_hover"",""data"":{""x"":686,""y"":384,""timestamp"":1585.5},""timestamp"":1585.5},{""type"":""chart_hover"",""data"":{""x"":685,""y"":384,""timestamp"":1819.3999999761581},""timestamp"":1819.3999999761581},{""type"":""chart_hover"",""data"":{""x"":684,""y"":384,""timestamp"":1826.0999999642372},""timestamp"":1826.0999999642372},{""type"":""chart_hover"",""data"":{""x"":683,""y"":384,""timestamp"":1842},""timestamp"":1842},{""type"":""chart_hover"",""data"":{""x"":682,""y"":384,""timestamp"":1850.5999999642372},""timestamp"":1850.5999999642372},{""type"":""chart_hover"",""data"":{""x"":681,""y"":385,""timestamp"":1858},""timestamp"":1858.0999999642372},{""type"":""chart_hover"",""data"":{""x"":680,""y"":385,""timestamp"":1875.5999999642372},""timestamp"":1875.5999999642372},{""type"":""chart_hover"",""data"":{""x"":680,""y"":386,""timestamp"":1885.7999999523163},""timestamp"":1885.7999999523163},{""type"":""chart_hover"",""data"":{""x"":679,""y"":387,""timestamp"":1909.0999999642372},""timestamp"":1909.0999999642372},{""type"":""chart_hover"",""data"":{""x"":678,""y"":387,""timestamp"":1917.8999999761581},""timestamp"":1917.8999999761581},{""type"":""chart_hover"",""data"":{""x"":677,""y"":387,""timestamp"":1925.5999999642372},""timestamp"":1925.5999999642372},{""type"":""chart_hover"",""data"":{""x"":677,""y"":388,""timestamp"":1934.0999999642372},""timestamp"":1934.0999999642372},{""type"":""chart_hover"",""data"":{""x"":676,""y"":388,""timestamp"":2067.2999999523163},""timestamp"":2067.2999999523163},{""type"":""chart_hover"",""data"":{""x"":675,""y"":388,""timestamp"":2105},""timestamp"":2105},{""type"":""chart_hover"",""data"":{""x"":674,""y"":388,""timestamp"":2125.5},""timestamp"":2125.5},{""type"":""chart_hover"",""data"":{""x"":673,""y"":388,""timestamp"":2135.899999976158},""timestamp"":2135.899999976158},{""type"":""chart_hover"",""data"":{""x"":672,""y"":387,""timestamp"":2213.899999976158},""timestamp"":2213.899999976158},{""type"":""chart_hover"",""data"":{""x"":672,""y"":386,""timestamp"":2220.899999976158},""timestamp"":2220.899999976158},{""type"":""chart_hover"",""data"":{""x"":671,""y"":386,""timestamp"":2228.7999999523163},""timestamp"":2228.7999999523163},{""type"":""chart_hover"",""data"":{""x"":671,""y"":385,""timestamp"":2255.199999988079},""timestamp"":2255.199999988079},{""type"":""chart_hover"",""data"":{""x"":671,""y"":384,""timestamp"":2275.199999988079},""timestamp"":2275.199999988079},{""type"":""chart_hover"",""data"":{""x"":671,""y"":383,""timestamp"":2291.399999976158},""timestamp"":2291.399999976158},{""type"":""chart_hover"",""data"":{""x"":671,""y"":382,""timestamp"":2306.199999988079},""timestamp"":2306.199999988079},{""type"":""chart_hover"",""data"":{""x"":671,""y"":381,""timestamp"":2333.599999964237},""timestamp"":2333.599999964237},{""type"":""chart_hover"",""data"":{""x"":671,""y"":380,""timestamp"":2345.199999988079},""timestamp"":2345.199999988079},{""type"":""chart_hover"",""data"":{""x"":671,""y"":379,""timestamp"":2366.599999964237},""timestamp"":2366.599999964237},{""type"":""chart_hover"",""data"":{""x"":671,""y"":378,""timestamp"":2375.399999976158},""timestamp"":2375.399999976158},{""type"":""chart_hover"",""data"":{""x"":671,""y"":377,""timestamp"":2384.099999964237},""timestamp"":2384.099999964237},{""type"":""chart_hover"",""data"":{""x"":672,""y"":376,""timestamp"":2408},""timestamp"":2408},{""type"":""chart_hover"",""data"":{""x"":672,""y"":375,""timestamp"":2416.599999964237},""timestamp"":2416.599999964237},{""type"":""chart_hover"",""data"":{""x"":673,""y"":375,""timestamp"":2430.2999999523163},""timestamp"":2430.2999999523163},{""type"":""chart_hover"",""data"":{""x"":673,""y"":374,""timestamp"":2437.899999976158},""timestamp"":2437.899999976158},{""type"":""chart_hover"",""data"":{""x"":673,""y"":373,""timestamp"":2458.199999988079},""timestamp"":2458.199999988079},{""type"":""chart_hover"",""data"":{""x"":674,""y"":373,""timestamp"":2472.699999988079},""timestamp"":2472.699999988079},{""type"":""chart_hover"",""data"":{""x"":674,""y"":372,""timestamp"":2478.599999964237},""timestamp"":2478.599999964237},{""type"":""chart_hover"",""data"":{""x"":675,""y"":372,""timestamp"":2501.099999964237},""timestamp"":2501.099999964237},{""type"":""chart_hover"",""data"":{""x"":675,""y"":371,""timestamp"":2510.099999964237},""timestamp"":2510.099999964237},{""type"":""chart_hover"",""data"":{""x"":675,""y"":370,""timestamp"":3191},""timestamp"":3191},{""type"":""chart_hover"",""data"":{""x"":674,""y"":369,""timestamp"":3214.899999976158},""timestamp"":3214.899999976158},{""type"":""chart_hover"",""data"":{""x"":673,""y"":369,""timestamp"":3239.7999999523163},""timestamp"":3239.7999999523163},{""type"":""chart_hover"",""data"":{""x"":672,""y"":371,""timestamp"":3248.199999988079},""timestamp"":3248.199999988079},{""type"":""chart_hover"",""data"":{""x"":671,""y"":371,""timestamp"":3262.399999976158},""timestamp"":3262.399999976158},{""type"":""chart_hover"",""data"":{""x"":669,""y"":373,""timestamp"":3317},""timestamp"":3317},{""type"":""chart_hover"",""data"":{""x"":668,""y"":374,""timestamp"":3324.5},""timestamp"":3324.5},{""type"":""chart_hover"",""data"":{""x"":666,""y"":375,""timestamp"":3333.099999964237},""timestamp"":3333.099999964237},{""type"":""chart_hover"",""data"":{""x"":664,""y"":376,""timestamp"":3340.699999988079},""timestamp"":3340.699999988079},{""type"":""chart_hover"",""data"":{""x"":662,""y"":377,""timestamp"":3364.899999976158},""timestamp"":3364.899999976158},{""type"":""chart_hover"",""data"":{""x"":661,""y"":378,""timestamp"":3373.099999964237},""timestamp"":3373.099999964237},{""type"":""chart_hover"",""data"":{""x"":659,""y"":379,""timestamp"":3381.599999964237},""timestamp"":3381.599999964237},{""type"":""chart_hover"",""data"":{""x"":657,""y"":380,""timestamp"":3390},""timestamp"":3390},{""type"":""chart_hover"",""data"":{""x"":656,""y"":380,""timestamp"":3398.2999999523163},""timestamp"":3398.2999999523163},{""type"":""chart_hover"",""data"":{""x"":655,""y"":380,""timestamp"":3406.7999999523163},""timestamp"":3406.7999999523163},{""type"":""chart_hover"",""data"":{""x"":653,""y"":381,""timestamp"":3415.7999999523163},""timestamp"":3415.7999999523163},{""type"":""chart_hover"",""data"":{""x"":652,""y"":382,""timestamp"":3423.399999976158},""timestamp"":3423.399999976158},{""type"":""chart_hover"",""data"":{""x"":650,""y"":384,""timestamp"":3431.699999988079},""timestamp"":3431.699999988079},{""type"":""chart_hover"",""data"":{""x"":649,""y"":386,""timestamp"":3439.899999976158},""timestamp"":3439.899999976158},{""type"":""chart_hover"",""data"":{""x"":647,""y"":388,""timestamp"":3448.099999964237},""timestamp"":3448.099999964237},{""type"":""chart_hover"",""data"":{""x"":646,""y"":390,""timestamp"":3456.5},""timestamp"":3456.5},{""type"":""chart_hover"",""data"":{""x"":644,""y"":392,""timestamp"":3464.7999999523163},""timestamp"":3464.7999999523163},{""type"":""chart_hover"",""data"":{""x"":642,""y"":394,""timestamp"":3472.899999976158},""timestamp"":3472.899999976158},{""type"":""chart_hover"",""data"":{""x"":639,""y"":398,""timestamp"":3481.099999964237},""timestamp"":3481.099999964237},{""type"":""chart_hover"",""data"":{""x"":637,""y"":400,""timestamp"":3490},""timestamp"":3490},{""type"":""chart_hover"",""data"":{""x"":637,""y"":402,""timestamp"":3498.099999964237},""timestamp"":3498.099999964237},{""type"":""chart_hover"",""data"":{""x"":635,""y"":404,""timestamp"":3506.399999976158},""timestamp"":3506.399999976158},{""type"":""chart_hover"",""data"":{""x"":635,""y"":406,""timestamp"":3514.599999964237},""timestamp"":3514.599999964237},{""type"":""chart_hover"",""data"":{""x"":633,""y"":408,""timestamp"":3523.099999964237},""timestamp"":3523.099999964237},{""type"":""chart_hover"",""data"":{""x"":632,""y"":411,""timestamp"":3531.399999976158},""timestamp"":3531.399999976158},{""type"":""chart_hover"",""data"":{""x"":631,""y"":413,""timestamp"":3539.599999964237},""timestamp"":3539.599999964237},{""type"":""chart_hover"",""data"":{""x"":630,""y"":415,""timestamp"":3548.399999976158},""timestamp"":3548.399999976158},{""type"":""chart_hover"",""data"":{""x"":629,""y"":417,""timestamp"":3556.199999988079},""timestamp"":3556.199999988079},{""type"":""chart_hover"",""data"":{""x"":628,""y"":419,""timestamp"":3564.399999976158},""timestamp"":3564.399999976158},{""type"":""chart_hover"",""data"":{""x"":628,""y"":421,""timestamp"":3572.599999964237},""timestamp"":3572.599999964237},{""type"":""chart_hover"",""data"":{""x"":627,""y"":423,""timestamp"":3581},""timestamp"":3581},{""type"":""chart_hover"",""data"":{""x"":626,""y"":424,""timestamp"":3589.399999976158},""timestamp"":3589.399999976158},{""type"":""chart_hover"",""data"":{""x"":626,""y"":425,""timestamp"":3597.699999988079},""timestamp"":3597.699999988079},{""type"":""chart_hover"",""data"":{""x"":625,""y"":426,""timestamp"":3606.599999964237},""timestamp"":3606.599999964237},{""type"":""chart_hover"",""data"":{""x"":624,""y"":428,""timestamp"":3614.2999999523163},""timestamp"":3614.2999999523163},{""type"":""chart_hover"",""data"":{""x"":624,""y"":429,""timestamp"":3628.699999988079},""timestamp"":3628.699999988079},{""type"":""chart_hover"",""data"":{""x"":624,""y"":431,""timestamp"":3636.399999976158},""timestamp"":3636.399999976158},{""type"":""chart_hover"",""data"":{""x"":624,""y"":432,""timestamp"":3645.899999976158},""timestamp"":3645.899999976158},{""type"":""chart_hover"",""data"":{""x"":623,""y"":433,""timestamp"":3651.7999999523163},""timestamp"":3651.7999999523163},{""type"":""chart_hover"",""data"":{""x"":623,""y"":434,""timestamp"":3659.7999999523163},""timestamp"":3659.899999976158},{""type"":""chart_hover"",""data"":{""x"":623,""y"":435,""timestamp"":3666.199999988079},""timestamp"":3666.199999988079},{""type"":""chart_hover"",""data"":{""x"":622,""y"":436,""timestamp"":3674.5},""timestamp"":3674.5},{""type"":""chart_hover"",""data"":{""x"":622,""y"":437,""timestamp"":3697.399999976158},""timestamp"":3697.399999976158},{""type"":""chart_hover"",""data"":{""x"":622,""y"":438,""timestamp"":3706.399999976158},""timestamp"":3706.399999976158},{""type"":""chart_hover"",""data"":{""x"":622,""y"":437,""timestamp"":4303.099999964237},""timestamp"":4303.099999964237},{""type"":""chart_hover"",""data"":{""x"":622,""y"":436,""timestamp"":4325.799999952316},""timestamp"":4325.799999952316},{""type"":""chart_hover"",""data"":{""x"":622,""y"":435,""timestamp"":4333},""timestamp"":4333},{""type"":""chart_hover"",""data"":{""x"":623,""y"":435,""timestamp"":4341.5},""timestamp"":4341.5},{""type"":""chart_hover"",""data"":{""x"":623,""y"":433,""timestamp"":4347.799999952316},""timestamp"":4347.899999976158},{""type"":""chart_hover"",""data"":{""x"":623,""y"":432,""timestamp"":4356.099999964237},""timestamp"":4356.099999964237},{""type"":""chart_hover"",""data"":{""x"":624,""y"":431,""timestamp"":4365.5},""timestamp"":4365.5},{""type"":""chart_hover"",""data"":{""x"":624,""y"":429,""timestamp"":4387.899999976158},""timestamp"":4387.899999976158},{""type"":""chart_hover"",""data"":{""x"":625,""y"":428,""timestamp"":4396.5},""timestamp"":4396.5},{""type"":""chart_hover"",""data"":{""x"":626,""y"":427,""timestamp"":4405},""timestamp"":4405},{""type"":""chart_hover"",""data"":{""x"":626,""y"":426,""timestamp"":4412.799999952316},""timestamp"":4412.799999952316},{""type"":""chart_hover"",""data"":{""x"":626,""y"":425,""timestamp"":4428.199999988079},""timestamp"":4428.199999988079},{""type"":""chart_hover"",""data"":{""x"":626,""y"":424,""timestamp"":4436},""timestamp"":4436},{""type"":""chart_hover"",""data"":{""x"":627,""y"":424,""timestamp"":4444},""timestamp"":4444},{""type"":""chart_hover"",""data"":{""x"":628,""y"":422,""timestamp"":4451.799999952316},""timestamp"":4451.799999952316},{""type"":""chart_hover"",""data"":{""x"":628,""y"":420,""timestamp"":4471},""timestamp"":4471},{""type"":""chart_hover"",""data"":{""x"":628,""y"":419,""timestamp"":4479.699999988079},""timestamp"":4479.699999988079},{""type"":""chart_hover"",""data"":{""x"":629,""y"":418,""timestamp"":4488.399999976158},""timestamp"":4488.399999976158},{""type"":""chart_hover"",""data"":{""x"":630,""y"":417,""timestamp"":4495.799999952316},""timestamp"":4495.799999952316},{""type"":""chart_hover"",""data"":{""x"":630,""y"":415,""timestamp"":4504.899999976158},""timestamp"":4504.899999976158},{""type"":""chart_hover"",""data"":{""x"":631,""y"":415,""timestamp"":4512.899999976158},""timestamp"":4512.899999976158},{""type"":""chart_hover"",""data"":{""x"":631,""y"":414,""timestamp"":4521.599999964237},""timestamp"":4521.599999964237},{""type"":""chart_hover"",""data"":{""x"":631,""y"":413,""timestamp"":6394.5},""timestamp"":6394.5},{""type"":""chart_hover"",""data"":{""x"":631,""y"":412,""timestamp"":6418.599999964237},""timestamp"":6418.599999964237},{""type"":""chart_hover"",""data"":{""x"":631,""y"":411,""timestamp"":6442.799999952316},""timestamp"":6442.799999952316},{""type"":""chart_hover"",""data"":{""x"":631,""y"":410,""timestamp"":6528.5},""timestamp"":6528.5},{""type"":""chart_hover"",""data"":{""x"":631,""y"":409,""timestamp"":6536},""timestamp"":6536},{""type"":""chart_hover"",""data"":{""x"":631,""y"":408,""timestamp"":6559.599999964237},""timestamp"":6559.599999964237},{""type"":""chart_hover"",""data"":{""x"":632,""y"":408,""timestamp"":6573.799999952316},""timestamp"":6573.799999952316},{""type"":""chart_hover"",""data"":{""x"":633,""y"":407,""timestamp"":6612.599999964237},""timestamp"":6612.599999964237},{""type"":""chart_hover"",""data"":{""x"":633,""y"":406,""timestamp"":6639.799999952316},""timestamp"":6639.899999976158},{""type"":""chart_hover"",""data"":{""x"":633,""y"":405,""timestamp"":6690.299999952316},""timestamp"":6690.299999952316},{""type"":""chart_hover"",""data"":{""x"":634,""y"":404,""timestamp"":6709.099999964237},""timestamp"":6709.099999964237},{""type"":""chart_hover"",""data"":{""x"":635,""y"":404,""timestamp"":6737.299999952316},""timestamp"":6737.299999952316},{""type"":""chart_hover"",""data"":{""x"":635,""y"":403,""timestamp"":6746.399999976158},""timestamp"":6746.399999976158},{""type"":""chart_hover"",""data"":{""x"":635,""y"":402,""timestamp"":6753.599999964237},""timestamp"":6753.599999964237},{""type"":""chart_hover"",""data"":{""x"":636,""y"":401,""timestamp"":6777.299999952316},""timestamp"":6777.299999952316},{""type"":""chart_hover"",""data"":{""x"":636,""y"":400,""timestamp"":6783.899999976158},""timestamp"":6783.899999976158},{""type"":""chart_hover"",""data"":{""x"":637,""y"":400,""timestamp"":6792.399999976158},""timestamp"":6792.5},{""type"":""chart_hover"",""data"":{""x"":638,""y"":399,""timestamp"":6805.5},""timestamp"":6805.5},{""type"":""chart_hover"",""data"":{""x"":639,""y"":398,""timestamp"":6825.299999952316},""timestamp"":6825.299999952316},{""type"":""chart_hover"",""data"":{""x"":639,""y"":397,""timestamp"":6833.299999952316},""timestamp"":6833.299999952316},{""type"":""chart_hover"",""data"":{""x"":641,""y"":395,""timestamp"":6858.5},""timestamp"":6858.599999964237},{""type"":""chart_hover"",""data"":{""x"":642,""y"":395,""timestamp"":6867.199999988079},""timestamp"":6867.199999988079},{""type"":""chart_hover"",""data"":{""x"":642,""y"":394,""timestamp"":6875.299999952316},""timestamp"":6875.299999952316},{""type"":""chart_hover"",""data"":{""x"":643,""y"":393,""timestamp"":6885.599999964237},""timestamp"":6885.599999964237},{""type"":""chart_hover"",""data"":{""x"":644,""y"":392,""timestamp"":6907.599999964237},""timestamp"":6907.599999964237},{""type"":""chart_hover"",""data"":{""x"":644,""y"":391,""timestamp"":6915.199999988079},""timestamp"":6915.199999988079},{""type"":""chart_hover"",""data"":{""x"":645,""y"":390,""timestamp"":6938.799999952316},""timestamp"":6938.799999952316},{""type"":""chart_hover"",""data"":{""x"":646,""y"":389,""timestamp"":6958.399999976158},""timestamp"":6958.399999976158},{""type"":""chart_hover"",""data"":{""x"":646,""y"":388,""timestamp"":6967.799999952316},""timestamp"":6967.799999952316},{""type"":""chart_hover"",""data"":{""x"":646,""y"":387,""timestamp"":6995.699999988079},""timestamp"":6995.699999988079},{""type"":""chart_hover"",""data"":{""x"":647,""y"":386,""timestamp"":7002.199999988079},""timestamp"":7002.199999988079},{""type"":""chart_hover"",""data"":{""x"":648,""y"":386,""timestamp"":7015.199999988079},""timestamp"":7015.199999988079},{""type"":""chart_hover"",""data"":{""x"":648,""y"":385,""timestamp"":7034.299999952316},""timestamp"":7034.299999952316},{""type"":""chart_hover"",""data"":{""x"":648,""y"":384,""timestamp"":7048.299999952316},""timestamp"":7048.299999952316},{""type"":""chart_hover"",""data"":{""x"":649,""y"":384,""timestamp"":7055.699999988079},""timestamp"":7055.699999988079},{""type"":""chart_hover"",""data"":{""x"":650,""y"":384,""timestamp"":7063.5},""timestamp"":7063.5},{""type"":""chart_hover"",""data"":{""x"":650,""y"":383,""timestamp"":7070.699999988079},""timestamp"":7070.699999988079},{""type"":""chart_hover"",""data"":{""x"":651,""y"":382,""timestamp"":7092.099999964237},""timestamp"":7092.099999964237},{""type"":""chart_hover"",""data"":{""x"":652,""y"":381,""timestamp"":7117.199999988079},""timestamp"":7117.199999988079},{""type"":""chart_hover"",""data"":{""x"":652,""y"":380,""timestamp"":7125.399999976158},""timestamp"":7125.399999976158},{""type"":""chart_hover"",""data"":{""x"":653,""y"":380,""timestamp"":7134.899999976158},""timestamp"":7134.899999976158},{""type"":""chart_hover"",""data"":{""x"":653,""y"":379,""timestamp"":7141.699999988079},""timestamp"":7141.699999988079},{""type"":""chart_hover"",""data"":{""x"":653,""y"":378,""timestamp"":7149.899999976158},""timestamp"":7149.899999976158},{""type"":""chart_hover"",""data"":{""x"":653,""y"":377,""timestamp"":7158.399999976158},""timestamp"":7158.399999976158},{""type"":""chart_hover"",""data"":{""x"":654,""y"":377,""timestamp"":7167.199999988079},""timestamp"":7167.199999988079},{""type"":""chart_hover"",""data"":{""x"":655,""y"":377,""timestamp"":7175},""timestamp"":7175},{""type"":""chart_hover"",""data"":{""x"":655,""y"":376,""timestamp"":7183.099999964237},""timestamp"":7183.099999964237},{""type"":""chart_hover"",""data"":{""x"":655,""y"":375,""timestamp"":7195.699999988079},""timestamp"":7195.699999988079},{""type"":""chart_hover"",""data"":{""x"":655,""y"":374,""timestamp"":7216.5},""timestamp"":7216.5},{""type"":""chart_hover"",""data"":{""x"":656,""y"":374,""timestamp"":7224.699999988079},""timestamp"":7224.699999988079},{""type"":""chart_hover"",""data"":{""x"":656,""y"":373,""timestamp"":7234},""timestamp"":7234},{""type"":""chart_hover"",""data"":{""x"":657,""y"":373,""timestamp"":7242.399999976158},""timestamp"":7242.399999976158},{""type"":""chart_hover"",""data"":{""x"":657,""y"":372,""timestamp"":7382.399999976158},""timestamp"":7382.399999976158},{""type"":""chart_hover"",""data"":{""x"":657,""y"":371,""timestamp"":7399.799999952316},""timestamp"":7399.799999952316},{""type"":""chart_hover"",""data"":{""x"":656,""y"":371,""timestamp"":7547.099999964237},""timestamp"":7547.099999964237},{""type"":""chart_hover"",""data"":{""x"":656,""y"":372,""timestamp"":7565.599999964237},""timestamp"":7565.599999964237},{""type"":""chart_hover"",""data"":{""x"":656,""y"":371,""timestamp"":7630.5},""timestamp"":7630.5},{""type"":""chart_hover"",""data"":{""x"":656,""y"":370,""timestamp"":7638.099999964237},""timestamp"":7638.099999964237},{""type"":""chart_hover"",""data"":{""x"":657,""y"":368,""timestamp"":7646.399999976158},""timestamp"":7646.5},{""type"":""chart_hover"",""data"":{""x"":657,""y"":366,""timestamp"":7654.5},""timestamp"":7654.5},{""type"":""chart_hover"",""data"":{""x"":658,""y"":364,""timestamp"":7660.899999976158},""timestamp"":7660.899999976158},{""type"":""chart_hover"",""data"":{""x"":659,""y"":362,""timestamp"":7670.599999964237},""timestamp"":7670.599999964237},{""type"":""chart_hover"",""data"":{""x"":659,""y"":359,""timestamp"":7678.5},""timestamp"":7678.599999964237},{""type"":""chart_hover"",""data"":{""x"":659,""y"":356,""timestamp"":7686.199999988079},""timestamp"":7686.199999988079},{""type"":""chart_hover"",""data"":{""x"":660,""y"":353,""timestamp"":7691.899999976158},""timestamp"":7691.899999976158},{""type"":""chart_hover"",""data"":{""x"":660,""y"":351,""timestamp"":7700.5},""timestamp"":7700.5},{""type"":""chart_hover"",""data"":{""x"":661,""y"":349,""timestamp"":7707.799999952316},""timestamp"":7707.799999952316},{""type"":""chart_hover"",""data"":{""x"":661,""y"":347,""timestamp"":7716.399999976158},""timestamp"":7716.399999976158},{""type"":""chart_hover"",""data"":{""x"":662,""y"":345,""timestamp"":7724.399999976158},""timestamp"":7724.399999976158},{""type"":""chart_hover"",""data"":{""x"":662,""y"":342,""timestamp"":7748.899999976158},""timestamp"":7748.899999976158},{""type"":""chart_hover"",""data"":{""x"":662,""y"":341,""timestamp"":7773.5},""timestamp"":7773.5},{""type"":""chart_hover"",""data"":{""x"":662,""y"":340,""timestamp"":7786},""timestamp"":7786},{""type"":""chart_hover"",""data"":{""x"":663,""y"":338,""timestamp"":7807},""timestamp"":7807},{""type"":""chart_hover"",""data"":{""x"":663,""y"":337,""timestamp"":7815.799999952316},""timestamp"":7815.799999952316},{""type"":""chart_hover"",""data"":{""x"":664,""y"":335,""timestamp"":7823.799999952316},""timestamp"":7823.799999952316},{""type"":""chart_hover"",""data"":{""x"":664,""y"":333,""timestamp"":7832},""timestamp"":7832},{""type"":""chart_hover"",""data"":{""x"":664,""y"":332,""timestamp"":7840.799999952316},""timestamp"":7840.799999952316},{""type"":""chart_hover"",""data"":{""x"":664,""y"":331,""timestamp"":7848.5},""timestamp"":7848.5},{""type"":""chart_hover"",""data"":{""x"":665,""y"":331,""timestamp"":7857},""timestamp"":7857},{""type"":""chart_hover"",""data"":{""x"":666,""y"":330,""timestamp"":7865.199999988079},""timestamp"":7865.199999988079},{""type"":""chart_hover"",""data"":{""x"":666,""y"":328,""timestamp"":7873.399999976158},""timestamp"":7873.399999976158},{""type"":""chart_hover"",""data"":{""x"":666,""y"":327,""timestamp"":7898.299999952316},""timestamp"":7898.299999952316},{""type"":""chart_hover"",""data"":{""x"":667,""y"":326,""timestamp"":7906.899999976158},""timestamp"":7906.899999976158},{""type"":""chart_hover"",""data"":{""x"":668,""y"":326,""timestamp"":7915.099999964237},""timestamp"":7915.099999964237},{""type"":""chart_hover"",""data"":{""x"":668,""y"":325,""timestamp"":7923.399999976158},""timestamp"":7923.599999964237},{""type"":""chart_hover"",""data"":{""x"":668,""y"":324,""timestamp"":7931.899999976158},""timestamp"":7931.899999976158},{""type"":""chart_hover"",""data"":{""x"":669,""y"":323,""timestamp"":7944.399999976158},""timestamp"":7944.399999976158},{""type"":""chart_hover"",""data"":{""x"":670,""y"":321,""timestamp"":7952},""timestamp"":7952},{""type"":""chart_hover"",""data"":{""x"":671,""y"":320,""timestamp"":7956.399999976158},""timestamp"":7956.399999976158},{""type"":""chart_hover"",""data"":{""x"":671,""y"":319,""timestamp"":7964.699999988079},""timestamp"":7964.699999988079},{""type"":""chart_hover"",""data"":{""x"":671,""y"":317,""timestamp"":7973.299999952316},""timestamp"":7973.299999952316},{""type"":""chart_hover"",""data"":{""x"":672,""y"":316,""timestamp"":7981.699999988079},""timestamp"":7981.699999988079},{""type"":""chart_hover"",""data"":{""x"":672,""y"":315,""timestamp"":7990},""timestamp"":7990},{""type"":""chart_hover"",""data"":{""x"":673,""y"":313,""timestamp"":7998.699999988079},""timestamp"":7998.699999988079},{""type"":""chart_hover"",""data"":{""x"":674,""y"":312,""timestamp"":8013.099999964237},""timestamp"":8013.099999964237},{""type"":""chart_hover"",""data"":{""x"":674,""y"":311,""timestamp"":8018.799999952316},""timestamp"":8018.799999952316},{""type"":""chart_hover"",""data"":{""x"":675,""y"":311,""timestamp"":8027.099999964237},""timestamp"":8027.099999964237},{""type"":""chart_hover"",""data"":{""x"":675,""y"":309,""timestamp"":8036.5},""timestamp"":8036.5},{""type"":""chart_hover"",""data"":{""x"":676,""y"":308,""timestamp"":8044.399999976158},""timestamp"":8044.399999976158},{""type"":""chart_hover"",""data"":{""x"":677,""y"":306,""timestamp"":8064.599999964237},""timestamp"":8064.599999964237},{""type"":""chart_hover"",""data"":{""x"":678,""y"":304,""timestamp"":8090},""timestamp"":8090},{""type"":""chart_hover"",""data"":{""x"":679,""y"":304,""timestamp"":8104},""timestamp"":8104},{""type"":""chart_hover"",""data"":{""x"":680,""y"":303,""timestamp"":8112.5},""timestamp"":8112.5},{""type"":""chart_hover"",""data"":{""x"":680,""y"":302,""timestamp"":8120.099999964237},""timestamp"":8120.099999964237},{""type"":""chart_hover"",""data"":{""x"":680,""y"":301,""timestamp"":8139.699999988079},""timestamp"":8139.699999988079},{""type"":""chart_hover"",""data"":{""x"":681,""y"":300,""timestamp"":8148.099999964237},""timestamp"":8148.099999964237},{""type"":""chart_hover"",""data"":{""x"":682,""y"":300,""timestamp"":8156.099999964237},""timestamp"":8156.099999964237},{""type"":""chart_hover"",""data"":{""x"":682,""y"":299,""timestamp"":8165.5},""timestamp"":8165.5},{""type"":""chart_hover"",""data"":{""x"":682,""y"":298,""timestamp"":8176.799999952316},""timestamp"":8176.799999952316},{""type"":""chart_hover"",""data"":{""x"":683,""y"":297,""timestamp"":8199},""timestamp"":8199},{""type"":""chart_hover"",""data"":{""x"":684,""y"":297,""timestamp"":8222.599999964237},""timestamp"":8222.599999964237},{""type"":""chart_hover"",""data"":{""x"":684,""y"":296,""timestamp"":8231.099999964237},""timestamp"":8231.099999964237},{""type"":""chart_hover"",""data"":{""x"":684,""y"":295,""timestamp"":8244.299999952316},""timestamp"":8244.299999952316},{""type"":""chart_hover"",""data"":{""x"":684,""y"":294,""timestamp"":8269.199999988079},""timestamp"":8269.199999988079},{""type"":""chart_hover"",""data"":{""x"":685,""y"":293,""timestamp"":8277.099999964237},""timestamp"":8277.099999964237},{""type"":""chart_hover"",""data"":{""x"":685,""y"":292,""timestamp"":8322.5},""timestamp"":8322.5},{""type"":""chart_hover"",""data"":{""x"":686,""y"":291,""timestamp"":8331.699999988079},""timestamp"":8331.699999988079},{""type"":""chart_hover"",""data"":{""x"":686,""y"":290,""timestamp"":8363.699999988079},""timestamp"":8363.699999988079},{""type"":""chart_hover"",""data"":{""x"":687,""y"":289,""timestamp"":8376.699999988079},""timestamp"":8376.799999952316},{""type"":""chart_hover"",""data"":{""x"":687,""y"":288,""timestamp"":8385},""timestamp"":8385},{""type"":""chart_hover"",""data"":{""x"":687,""y"":287,""timestamp"":8418.599999964237},""timestamp"":8418.699999988079},{""type"":""chart_hover"",""data"":{""x"":688,""y"":286,""timestamp"":8423.399999976158},""timestamp"":8423.399999976158},{""type"":""chart_hover"",""data"":{""x"":688,""y"":285,""timestamp"":8462.899999976158},""timestamp"":8462.899999976158},{""type"":""chart_hover"",""data"":{""x"":688,""y"":284,""timestamp"":8487.099999964237},""timestamp"":8487.099999964237},{""type"":""chart_hover"",""data"":{""x"":688,""y"":283,""timestamp"":8509.5},""timestamp"":8509.5},{""type"":""chart_hover"",""data"":{""x"":688,""y"":282,""timestamp"":8533.199999988079},""timestamp"":8533.199999988079},{""type"":""chart_hover"",""data"":{""x"":688,""y"":281,""timestamp"":8588},""timestamp"":8588},{""type"":""chart_hover"",""data"":{""x"":688,""y"":280,""timestamp"":8614.199999988079},""timestamp"":8614.199999988079},{""type"":""chart_hover"",""data"":{""x"":688,""y"":279,""timestamp"":8719.699999988079},""timestamp"":8719.699999988079},{""type"":""chart_hover"",""data"":{""x"":688,""y"":278,""timestamp"":8883.899999976158},""timestamp"":8883.899999976158},{""type"":""chart_hover"",""data"":{""x"":689,""y"":278,""timestamp"":10825.599999964237},""timestamp"":10825.599999964237},{""type"":""chart_hover"",""data"":{""x"":690,""y"":278,""timestamp"":10965.099999964237},""timestamp"":10965.099999964237},{""type"":""chart_hover"",""data"":{""x"":691,""y"":278,""timestamp"":11205.599999964237},""timestamp"":11205.599999964237},{""type"":""chart_hover"",""data"":{""x"":692,""y"":278,""timestamp"":11345.699999988079},""timestamp"":11345.699999988079},{""type"":""chart_hover"",""data"":{""x"":693,""y"":278,""timestamp"":11589.599999964237},""timestamp"":11589.599999964237},{""type"":""chart_hover"",""data"":{""x"":693,""y"":277,""timestamp"":11617.799999952316},""timestamp"":11617.799999952316},{""type"":""chart_hover"",""data"":{""x"":693,""y"":278,""timestamp"":12637.199999988079},""timestamp"":12637.199999988079},{""type"":""chart_hover"",""data"":{""x"":693,""y"":279,""timestamp"":12643.799999952316},""timestamp"":12643.799999952316},{""type"":""chart_hover"",""data"":{""x"":693,""y"":279,""timestamp"":12694.5},""timestamp"":12694.5},{""type"":""chart_hover"",""data"":{""x"":693,""y"":281,""timestamp"":12730.899999976158},""timestamp"":12731},{""type"":""chart_hover"",""data"":{""x"":693,""y"":282,""timestamp"":12749.399999976158},""timestamp"":12749.399999976158},{""type"":""chart_hover"",""data"":{""x"":693,""y"":283,""timestamp"":12773.599999964237},""timestamp"":12773.599999964237},{""type"":""chart_hover"",""data"":{""x"":693,""y"":284,""timestamp"":12781.299999952316},""timestamp"":12781.299999952316},{""type"":""chart_hover"",""data"":{""x"":693,""y"":285,""timestamp"":12806.099999964237},""timestamp"":12806.099999964237},{""type"":""chart_hover"",""data"":{""x"":693,""y"":286,""timestamp"":12814.699999988079},""timestamp"":12814.699999988079},{""type"":""chart_hover"",""data"":{""x"":692,""y"":288,""timestamp"":12829.099999964237},""timestamp"":12829.099999964237},{""type"":""chart_hover"",""data"":{""x"":691,""y"":288,""timestamp"":12847.899999976158},""timestamp"":12847.899999976158},{""type"":""chart_hover"",""data"":{""x"":691,""y"":290,""timestamp"":12856.299999952316},""timestamp"":12856.299999952316},{""type"":""chart_hover"",""data"":{""x"":691,""y"":291,""timestamp"":12870.199999988079},""timestamp"":12870.199999988079},{""type"":""chart_hover"",""data"":{""x"":691,""y"":292,""timestamp"":12889.599999964237},""timestamp"":12889.599999964237},{""type"":""chart_hover"",""data"":{""x"":690,""y"":293,""timestamp"":12898.299999952316},""timestamp"":12898.299999952316},{""type"":""chart_hover"",""data"":{""x"":689,""y"":294,""timestamp"":12906.599999964237},""timestamp"":12906.599999964237},{""type"":""chart_hover"",""data"":{""x"":689,""y"":295,""timestamp"":12915},""timestamp"":12915},{""type"":""chart_hover"",""data"":{""x"":688,""y"":298,""timestamp"":12923.199999988079},""timestamp"":12923.199999988079},{""type"":""chart_hover"",""data"":{""x"":688,""y"":303,""timestamp"":12931},""timestamp"":12931},{""type"":""chart_hover"",""data"":{""x"":687,""y"":308,""timestamp"":12939.5},""timestamp"":12939.5},{""type"":""chart_hover"",""data"":{""x"":685,""y"":317,""timestamp"":12948.199999988079},""timestamp"":12948.199999988079},{""type"":""chart_hover"",""data"":{""x"":684,""y"":322,""timestamp"":12956.799999952316},""timestamp"":12956.799999952316},{""type"":""chart_hover"",""data"":{""x"":683,""y"":325,""timestamp"":12964.5},""timestamp"":12964.5},{""type"":""chart_hover"",""data"":{""x"":682,""y"":330,""timestamp"":12972.899999976158},""timestamp"":12972.899999976158},{""type"":""chart_hover"",""data"":{""x"":682,""y"":334,""timestamp"":12981.199999988079},""timestamp"":12981.199999988079},{""type"":""chart_hover"",""data"":{""x"":681,""y"":336,""timestamp"":12989.699999988079},""timestamp"":12989.699999988079},{""type"":""chart_hover"",""data"":{""x"":680,""y"":339,""timestamp"":12998},""timestamp"":12998},{""type"":""chart_hover"",""data"":{""x"":680,""y"":341,""timestamp"":13006.199999988079},""timestamp"":13006.199999988079},{""type"":""chart_hover"",""data"":{""x"":679,""y"":344,""timestamp"":13014.399999976158},""timestamp"":13014.399999976158},{""type"":""chart_hover"",""data"":{""x"":678,""y"":346,""timestamp"":13023.199999988079},""timestamp"":13023.199999988079},{""type"":""chart_hover"",""data"":{""x"":678,""y"":348,""timestamp"":13031.299999952316},""timestamp"":13031.299999952316},{""type"":""chart_hover"",""data"":{""x"":678,""y"":351,""timestamp"":13039.5},""timestamp"":13039.5},{""type"":""chart_hover"",""data"":{""x"":677,""y"":353,""timestamp"":13047.5},""timestamp"":13047.5},{""type"":""chart_hover"",""data"":{""x"":677,""y"":356,""timestamp"":13056.399999976158},""timestamp"":13056.399999976158},{""type"":""chart_hover"",""data"":{""x"":677,""y"":358,""timestamp"":13064.199999988079},""timestamp"":13064.199999988079},{""type"":""chart_hover"",""data"":{""x"":676,""y"":361,""timestamp"":13072.299999952316},""timestamp"":13072.299999952316},{""type"":""chart_hover"",""data"":{""x"":676,""y"":362,""timestamp"":13080.899999976158},""timestamp"":13080.899999976158},{""type"":""chart_hover"",""data"":{""x"":675,""y"":365,""timestamp"":13089},""timestamp"":13089},{""type"":""chart_hover"",""data"":{""x"":675,""y"":369,""timestamp"":13097.699999988079},""timestamp"":13097.699999988079},{""type"":""chart_hover"",""data"":{""x"":674,""y"":373,""timestamp"":13105.899999976158},""timestamp"":13105.899999976158},{""type"":""chart_hover"",""data"":{""x"":673,""y"":377,""timestamp"":13114.199999988079},""timestamp"":13114.199999988079},{""type"":""chart_hover"",""data"":{""x"":671,""y"":383,""timestamp"":13122.699999988079},""timestamp"":13122.699999988079},{""type"":""chart_hover"",""data"":{""x"":670,""y"":388,""timestamp"":13131},""timestamp"":13131},{""type"":""chart_hover"",""data"":{""x"":669,""y"":390,""timestamp"":13139.099999964237},""timestamp"":13139.099999964237},{""type"":""chart_hover"",""data"":{""x"":668,""y"":394,""timestamp"":13147.699999988079},""timestamp"":13147.699999988079},{""type"":""chart_hover"",""data"":{""x"":668,""y"":396,""timestamp"":13156.199999988079},""timestamp"":13156.199999988079},{""type"":""chart_hover"",""data"":{""x"":667,""y"":399,""timestamp"":13164.299999952316},""timestamp"":13164.299999952316},{""type"":""chart_hover"",""data"":{""x"":667,""y"":400,""timestamp"":13174.699999988079},""timestamp"":13174.699999988079},{""type"":""chart_hover"",""data"":{""x"":667,""y"":401,""timestamp"":13197.399999976158},""timestamp"":13197.399999976158},{""type"":""chart_hover"",""data"":{""x"":667,""y"":402,""timestamp"":13206},""timestamp"":13206},{""type"":""chart_hover"",""data"":{""x"":667,""y"":403,""timestamp"":13260.099999964237},""timestamp"":13260.199999988079},{""type"":""chart_hover"",""data"":{""x"":667,""y"":402,""timestamp"":13375.299999952316},""timestamp"":13375.299999952316},{""type"":""chart_hover"",""data"":{""x"":666,""y"":403,""timestamp"":13715.199999988079},""timestamp"":13715.199999988079},{""type"":""chart_hover"",""data"":{""x"":666,""y"":404,""timestamp"":13737.899999976158},""timestamp"":13737.899999976158},{""type"":""chart_hover"",""data"":{""x"":666,""y"":405,""timestamp"":13748.199999988079},""timestamp"":13748.199999988079},{""type"":""chart_hover"",""data"":{""x"":666,""y"":406,""timestamp"":13771.399999976158},""timestamp"":13771.399999976158},{""type"":""chart_hover"",""data"":{""x"":665,""y"":406,""timestamp"":13780.399999976158},""timestamp"":13780.399999976158},{""type"":""chart_hover"",""data"":{""x"":665,""y"":408,""timestamp"":13788.099999964237},""timestamp"":13788.099999964237},{""type"":""chart_hover"",""data"":{""x"":664,""y"":410,""timestamp"":13813},""timestamp"":13813},{""type"":""chart_hover"",""data"":{""x"":664,""y"":411,""timestamp"":13823},""timestamp"":13823},{""type"":""chart_hover"",""data"":{""x"":664,""y"":412,""timestamp"":13836.099999964237},""timestamp"":13836.099999964237},{""type"":""chart_hover"",""data"":{""x"":664,""y"":413,""timestamp"":13841.899999976158},""timestamp"":13841.899999976158},{""type"":""chart_hover"",""data"":{""x"":664,""y"":414,""timestamp"":13873.399999976158},""timestamp"":13873.399999976158},{""type"":""chart_hover"",""data"":{""x"":664,""y"":415,""timestamp"":15863.099999964237},""timestamp"":15863.099999964237},{""type"":""chart_hover"",""data"":{""x"":664,""y"":416,""timestamp"":16018.199999988079},""timestamp"":16018.199999988079},{""type"":""chart_hover"",""data"":{""x"":663,""y"":416,""timestamp"":16165.299999952316},""timestamp"":16165.299999952316},{""type"":""chart_hover"",""data"":{""x"":662,""y"":417,""timestamp"":16184.099999964237},""timestamp"":16184.099999964237},{""type"":""chart_hover"",""data"":{""x"":662,""y"":418,""timestamp"":16196.699999988079},""timestamp"":16196.699999988079},{""type"":""chart_hover"",""data"":{""x"":662,""y"":419,""timestamp"":16204.5},""timestamp"":16204.5},{""type"":""chart_hover"",""data"":{""x"":662,""y"":420,""timestamp"":16212.5},""timestamp"":16212.5},{""type"":""chart_hover"",""data"":{""x"":661,""y"":421,""timestamp"":16220.799999952316},""timestamp"":16220.799999952316},{""type"":""chart_hover"",""data"":{""x"":661,""y"":422,""timestamp"":16242.099999964237},""timestamp"":16242.099999964237},{""type"":""chart_hover"",""data"":{""x"":661,""y"":423,""timestamp"":16547.299999952316},""timestamp"":16547.299999952316},{""type"":""chart_hover"",""data"":{""x"":660,""y"":424,""timestamp"":16632.399999976158},""timestamp"":16632.399999976158},{""type"":""chart_hover"",""data"":{""x"":660,""y"":425,""timestamp"":22283.399999976158},""timestamp"":22283.399999976158},{""type"":""chart_hover"",""data"":{""x"":660,""y"":426,""timestamp"":22308.599999964237},""timestamp"":22308.599999964237},{""type"":""chart_hover"",""data"":{""x"":660,""y"":427,""timestamp"":22344.399999976158},""timestamp"":22344.399999976158},{""type"":""chart_hover"",""data"":{""x"":660,""y"":428,""timestamp"":22364.5},""timestamp"":22364.5},{""type"":""chart_hover"",""data"":{""x"":660,""y"":429,""timestamp"":22400.69999998808},""timestamp"":22400.69999998808},{""type"":""chart_hover"",""data"":{""x"":660,""y"":430,""timestamp"":22408.599999964237},""timestamp"":22408.599999964237},{""type"":""chart_hover"",""data"":{""x"":660,""y"":431,""timestamp"":22415.899999976158},""timestamp"":22415.899999976158},{""type"":""chart_hover"",""data"":{""x"":660,""y"":432,""timestamp"":22455.299999952316},""timestamp"":22455.299999952316},{""type"":""chart_hover"",""data"":{""x"":660,""y"":433,""timestamp"":22472.299999952316},""timestamp"":22472.299999952316},{""type"":""chart_hover"",""data"":{""x"":660,""y"":434,""timestamp"":22487.599999964237},""timestamp"":22487.599999964237},{""type"":""chart_hover"",""data"":{""x"":660,""y"":435,""timestamp"":22518},""timestamp"":22518},{""type"":""chart_hover"",""data"":{""x"":659,""y"":435,""timestamp"":23037.599999964237},""timestamp"":23037.599999964237},{""type"":""chart_hover"",""data"":{""x"":658,""y"":437,""timestamp"":23054.19999998808},""timestamp"":23054.19999998808},{""type"":""chart_hover"",""data"":{""x"":658,""y"":439,""timestamp"":23104},""timestamp"":23104},{""type"":""chart_hover"",""data"":{""x"":658,""y"":439,""timestamp"":23120.299999952316},""timestamp"":23120.299999952316},{""type"":""chart_hover"",""data"":{""x"":657,""y"":442,""timestamp"":23136.299999952316},""timestamp"":23136.299999952316},{""type"":""chart_hover"",""data"":{""x"":657,""y"":444,""timestamp"":23145.899999976158},""timestamp"":23145.899999976158},{""type"":""chart_hover"",""data"":{""x"":657,""y"":446,""timestamp"":23162.799999952316},""timestamp"":23162.799999952316},{""type"":""chart_hover"",""data"":{""x"":656,""y"":448,""timestamp"":23171.299999952316},""timestamp"":23171.299999952316},{""type"":""chart_hover"",""data"":{""x"":656,""y"":449,""timestamp"":23186.5},""timestamp"":23186.5},{""type"":""chart_hover"",""data"":{""x"":656,""y"":451,""timestamp"":23194.299999952316},""timestamp"":23194.399999976158},{""type"":""chart_hover"",""data"":{""x"":656,""y"":453,""timestamp"":23200.19999998808},""timestamp"":23200.19999998808},{""type"":""chart_hover"",""data"":{""x"":656,""y"":456,""timestamp"":23208.899999976158},""timestamp"":23208.899999976158},{""type"":""chart_hover"",""data"":{""x"":656,""y"":459,""timestamp"":23217.099999964237},""timestamp"":23217.099999964237},{""type"":""chart_hover"",""data"":{""x"":657,""y"":462,""timestamp"":23226.5},""timestamp"":23226.5},{""type"":""chart_hover"",""data"":{""x"":657,""y"":464,""timestamp"":23233},""timestamp"":23233},{""type"":""chart_hover"",""data"":{""x"":658,""y"":466,""timestamp"":23240.599999964237},""timestamp"":23240.599999964237},{""type"":""chart_hover"",""data"":{""x"":659,""y"":468,""timestamp"":23249.099999964237},""timestamp"":23249.099999964237},{""type"":""chart_hover"",""data"":{""x"":660,""y"":471,""timestamp"":23256.5},""timestamp"":23256.5},{""type"":""chart_hover"",""data"":{""x"":660,""y"":474,""timestamp"":23266.19999998808},""timestamp"":23266.19999998808},{""type"":""chart_hover"",""data"":{""x"":661,""y"":477,""timestamp"":23271.5},""timestamp"":23271.5},{""type"":""chart_hover"",""data"":{""x"":662,""y"":479,""timestamp"":23279.399999976158},""timestamp"":23279.399999976158},{""type"":""chart_hover"",""data"":{""x"":662,""y"":482,""timestamp"":23287.899999976158},""timestamp"":23288.099999964237},{""type"":""chart_hover"",""data"":{""x"":663,""y"":486,""timestamp"":23296.099999964237},""timestamp"":23296.099999964237},{""type"":""chart_hover"",""data"":{""x"":664,""y"":489,""timestamp"":23304.799999952316},""timestamp"":23304.899999976158},{""type"":""chart_hover"",""data"":{""x"":664,""y"":492,""timestamp"":23312.799999952316},""timestamp"":23312.799999952316},{""type"":""chart_hover"",""data"":{""x"":664,""y"":495,""timestamp"":23321.19999998808},""timestamp"":23321.19999998808},{""type"":""chart_hover"",""data"":{""x"":664,""y"":498,""timestamp"":23329.5},""timestamp"":23329.5},{""type"":""chart_hover"",""data"":{""x"":665,""y"":501,""timestamp"":23337.69999998808},""timestamp"":23337.69999998808},{""type"":""chart_hover"",""data"":{""x"":665,""y"":503,""timestamp"":23345.899999976158},""timestamp"":23345.899999976158},{""type"":""chart_hover"",""data"":{""x"":666,""y"":506,""timestamp"":23354.19999998808},""timestamp"":23354.19999998808},{""type"":""chart_hover"",""data"":{""x"":666,""y"":508,""timestamp"":23362.599999964237},""timestamp"":23362.599999964237},{""type"":""chart_hover"",""data"":{""x"":666,""y"":511,""timestamp"":23370.899999976158},""timestamp"":23371},{""type"":""chart_hover"",""data"":{""x"":666,""y"":513,""timestamp"":23380.099999964237},""timestamp"":23380.099999964237},{""type"":""chart_hover"",""data"":{""x"":667,""y"":515,""timestamp"":23387.69999998808},""timestamp"":23387.69999998808},{""type"":""chart_hover"",""data"":{""x"":667,""y"":522,""timestamp"":23396.399999976158},""timestamp"":23396.399999976158},{""type"":""chart_hover"",""data"":{""x"":667,""y"":525,""timestamp"":23404.899999976158},""timestamp"":23404.899999976158},{""type"":""chart_hover"",""data"":{""x"":666,""y"":528,""timestamp"":23412.19999998808},""timestamp"":23412.19999998808},{""type"":""chart_hover"",""data"":{""x"":666,""y"":533,""timestamp"":23421},""timestamp"":23421},{""type"":""chart_hover"",""data"":{""x"":666,""y"":537,""timestamp"":23429.19999998808},""timestamp"":23429.19999998808},{""type"":""chart_hover"",""data"":{""x"":665,""y"":542,""timestamp"":23437.799999952316},""timestamp"":23437.799999952316},{""type"":""chart_hover"",""data"":{""x"":665,""y"":546,""timestamp"":23445.69999998808},""timestamp"":23445.69999998808},{""type"":""chart_hover"",""data"":{""x"":665,""y"":548,""timestamp"":23454.099999964237},""timestamp"":23454.19999998808},{""type"":""chart_hover"",""data"":{""x"":665,""y"":551,""timestamp"":23462.69999998808},""timestamp"":23462.69999998808},{""type"":""chart_hover"",""data"":{""x"":665,""y"":552,""timestamp"":23470.599999964237},""timestamp"":23470.599999964237},{""type"":""chart_leave"",""data"":{""timestamp"":23479.399999976158},""timestamp"":23479.399999976158},{""type"":""chart_enter"",""data"":{""timestamp"":26723.5},""timestamp"":26723.5},{""type"":""chart_hover"",""data"":{""x"":446,""y"":553,""timestamp"":26723.599999964237},""timestamp"":26723.599999964237},{""type"":""chart_hover"",""data"":{""x"":451,""y"":551,""timestamp"":26732.599999964237},""timestamp"":26732.599999964237},{""type"":""chart_hover"",""data"":{""x"":459,""y"":548,""timestamp"":26751},""timestamp"":26751},{""type"":""chart_hover"",""data"":{""x"":468,""y"":544,""timestamp"":26760.599999964237},""timestamp"":26760.599999964237},{""type"":""chart_hover"",""data"":{""x"":472,""y"":541,""timestamp"":26775.5},""timestamp"":26775.5},{""type"":""chart_hover"",""data"":{""x"":475,""y"":539,""timestamp"":26782.799999952316},""timestamp"":26782.799999952316},{""type"":""chart_hover"",""data"":{""x"":479,""y"":535,""timestamp"":26791.099999964237},""timestamp"":26791.19999998808},{""type"":""chart_hover"",""data"":{""x"":483,""y"":532,""timestamp"":26799.299999952316},""timestamp"":26799.299999952316},{""type"":""chart_hover"",""data"":{""x"":488,""y"":528,""timestamp"":26807.899999976158},""timestamp"":26808},{""type"":""chart_hover"",""data"":{""x"":493,""y"":525,""timestamp"":26816.099999964237},""timestamp"":26816.19999998808},{""type"":""chart_hover"",""data"":{""x"":504,""y"":519,""timestamp"":26825.599999964237},""timestamp"":26825.599999964237},{""type"":""chart_hover"",""data"":{""x"":510,""y"":517,""timestamp"":26832.599999964237},""timestamp"":26832.69999998808},{""type"":""chart_hover"",""data"":{""x"":518,""y"":514,""timestamp"":26841.399999976158},""timestamp"":26841.399999976158},{""type"":""chart_hover"",""data"":{""x"":526,""y"":511,""timestamp"":26849.799999952316},""timestamp"":26849.799999952316},{""type"":""chart_hover"",""data"":{""x"":534,""y"":507,""timestamp"":26858.899999976158},""timestamp"":26858.899999976158},{""type"":""chart_hover"",""data"":{""x"":542,""y"":504,""timestamp"":26867.599999964237},""timestamp"":26867.599999964237},{""type"":""chart_hover"",""data"":{""x"":548,""y"":499,""timestamp"":26874.099999964237},""timestamp"":26874.099999964237},{""type"":""chart_hover"",""data"":{""x"":555,""y"":495,""timestamp"":26883.899999976158},""timestamp"":26883.899999976158},{""type"":""chart_hover"",""data"":{""x"":560,""y"":493,""timestamp"":26891.19999998808},""timestamp"":26891.299999952316},{""type"":""chart_hover"",""data"":{""x"":565,""y"":491,""timestamp"":26899.799999952316},""timestamp"":26899.799999952316},{""type"":""chart_hover"",""data"":{""x"":569,""y"":488,""timestamp"":26907.599999964237},""timestamp"":26907.599999964237},{""type"":""chart_hover"",""data"":{""x"":574,""y"":486,""timestamp"":26916},""timestamp"":26916.099999964237},{""type"":""chart_hover"",""data"":{""x"":583,""y"":482,""timestamp"":26924.299999952316},""timestamp"":26924.299999952316},{""type"":""chart_hover"",""data"":{""x"":586,""y"":480,""timestamp"":26932.099999964237},""timestamp"":26932.099999964237},{""type"":""chart_hover"",""data"":{""x"":590,""y"":478,""timestamp"":26940.599999964237},""timestamp"":26940.599999964237},{""type"":""chart_hover"",""data"":{""x"":595,""y"":477,""timestamp"":26950.399999976158},""timestamp"":26950.5},{""type"":""chart_hover"",""data"":{""x"":600,""y"":474,""timestamp"":26958.5},""timestamp"":26958.5},{""type"":""chart_hover"",""data"":{""x"":605,""y"":473,""timestamp"":26966.799999952316},""timestamp"":26966.799999952316},{""type"":""chart_hover"",""data"":{""x"":611,""y"":472,""timestamp"":26973.899999976158},""timestamp"":26973.899999976158},{""type"":""chart_hover"",""data"":{""x"":616,""y"":469,""timestamp"":26984},""timestamp"":26984},{""type"":""chart_hover"",""data"":{""x"":621,""y"":466,""timestamp"":26991.399999976158},""timestamp"":26991.399999976158},{""type"":""chart_hover"",""data"":{""x"":627,""y"":465,""timestamp"":26999},""timestamp"":26999.099999964237},{""type"":""chart_hover"",""data"":{""x"":632,""y"":462,""timestamp"":27007.299999952316},""timestamp"":27007.299999952316},{""type"":""chart_hover"",""data"":{""x"":636,""y"":461,""timestamp"":27015.69999998808},""timestamp"":27015.69999998808},{""type"":""chart_hover"",""data"":{""x"":640,""y"":459,""timestamp"":27024.599999964237},""timestamp"":27024.599999964237},{""type"":""chart_hover"",""data"":{""x"":642,""y"":459,""timestamp"":27032.799999952316},""timestamp"":27032.799999952316},{""type"":""chart_hover"",""data"":{""x"":646,""y"":457,""timestamp"":27041.19999998808},""timestamp"":27041.19999998808},{""type"":""chart_hover"",""data"":{""x"":648,""y"":456,""timestamp"":27049.599999964237},""timestamp"":27049.69999998808},{""type"":""chart_hover"",""data"":{""x"":651,""y"":455,""timestamp"":27056.69999998808},""timestamp"":27056.69999998808},{""type"":""chart_hover"",""data"":{""x"":652,""y"":455,""timestamp"":27065.19999998808},""timestamp"":27065.19999998808},{""type"":""chart_hover"",""data"":{""x"":654,""y"":454,""timestamp"":27072.5},""timestamp"":27072.5},{""type"":""chart_hover"",""data"":{""x"":656,""y"":453,""timestamp"":27080.799999952316},""timestamp"":27080.799999952316},{""type"":""chart_hover"",""data"":{""x"":658,""y"":453,""timestamp"":27089.599999964237},""timestamp"":27089.599999964237},{""type"":""chart_hover"",""data"":{""x"":659,""y"":452,""timestamp"":27097.899999976158},""timestamp"":27097.899999976158},{""type"":""chart_hover"",""data"":{""x"":660,""y"":452,""timestamp"":27106.099999964237},""timestamp"":27106.099999964237},{""type"":""chart_hover"",""data"":{""x"":659,""y"":452,""timestamp"":27299},""timestamp"":27299},{""type"":""chart_hover"",""data"":{""x"":657,""y"":453,""timestamp"":27306.399999976158},""timestamp"":27306.399999976158},{""type"":""chart_hover"",""data"":{""x"":656,""y"":455,""timestamp"":27314.399999976158},""timestamp"":27314.399999976158},{""type"":""chart_hover"",""data"":{""x"":654,""y"":457,""timestamp"":27328.69999998808},""timestamp"":27328.69999998808},{""type"":""chart_hover"",""data"":{""x"":650,""y"":461,""timestamp"":27337.799999952316},""timestamp"":27337.799999952316},{""type"":""chart_hover"",""data"":{""x"":648,""y"":463,""timestamp"":27343.399999976158},""timestamp"":27343.399999976158},{""type"":""chart_hover"",""data"":{""x"":645,""y"":465,""timestamp"":27351.799999952316},""timestamp"":27351.799999952316},{""type"":""chart_hover"",""data"":{""x"":642,""y"":468,""timestamp"":27365.099999964237},""timestamp"":27365.099999964237},{""type"":""chart_hover"",""data"":{""x"":639,""y"":473,""timestamp"":27373},""timestamp"":27373},{""type"":""chart_hover"",""data"":{""x"":635,""y"":475,""timestamp"":27380.69999998808},""timestamp"":27380.69999998808},{""type"":""chart_hover"",""data"":{""x"":625,""y"":486,""timestamp"":27390.19999998808},""timestamp"":27390.19999998808},{""type"":""chart_hover"",""data"":{""x"":618,""y"":493,""timestamp"":27398.299999952316},""timestamp"":27398.399999976158},{""type"":""chart_hover"",""data"":{""x"":611,""y"":500,""timestamp"":27405.599999964237},""timestamp"":27405.599999964237},{""type"":""chart_hover"",""data"":{""x"":601,""y"":507,""timestamp"":27414.69999998808},""timestamp"":27414.69999998808},{""type"":""chart_hover"",""data"":{""x"":590,""y"":515,""timestamp"":27422.69999998808},""timestamp"":27422.69999998808},{""type"":""chart_hover"",""data"":{""x"":579,""y"":525,""timestamp"":27430.399999976158},""timestamp"":27430.399999976158},{""type"":""chart_hover"",""data"":{""x"":569,""y"":533,""timestamp"":27438.799999952316},""timestamp"":27438.799999952316},{""type"":""chart_hover"",""data"":{""x"":555,""y"":540,""timestamp"":27447},""timestamp"":27447.099999964237},{""type"":""chart_hover"",""data"":{""x"":546,""y"":544,""timestamp"":27455.5},""timestamp"":27455.5},{""type"":""chart_hover"",""data"":{""x"":534,""y"":548,""timestamp"":27463.799999952316},""timestamp"":27463.799999952316},{""type"":""chart_hover"",""data"":{""x"":525,""y"":551,""timestamp"":27472},""timestamp"":27472},{""type"":""chart_leave"",""data"":{""timestamp"":27480.69999998808},""timestamp"":27480.69999998808},{""type"":""chart_enter"",""data"":{""timestamp"":30475.19999998808},""timestamp"":30475.19999998808},{""type"":""chart_hover"",""data"":{""x"":592,""y"":554,""timestamp"":30475.299999952316},""timestamp"":30475.299999952316},{""type"":""chart_hover"",""data"":{""x"":602,""y"":550,""timestamp"":30483.299999952316},""timestamp"":30483.299999952316},{""type"":""chart_hover"",""data"":{""x"":617,""y"":544,""timestamp"":30494.69999998808},""timestamp"":30494.69999998808},{""type"":""chart_hover"",""data"":{""x"":624,""y"":541,""timestamp"":30503.599999964237},""timestamp"":30503.599999964237},{""type"":""chart_hover"",""data"":{""x"":638,""y"":535,""timestamp"":30518.599999964237},""timestamp"":30518.599999964237},{""type"":""chart_hover"",""data"":{""x"":645,""y"":533,""timestamp"":30526.19999998808},""timestamp"":30526.19999998808},{""type"":""chart_hover"",""data"":{""x"":651,""y"":530,""timestamp"":30534.399999976158},""timestamp"":30534.399999976158},{""type"":""chart_hover"",""data"":{""x"":657,""y"":528,""timestamp"":30543.799999952316},""timestamp"":30543.799999952316},{""type"":""chart_hover"",""data"":{""x"":664,""y"":528,""timestamp"":30551.599999964237},""timestamp"":30551.69999998808},{""type"":""chart_hover"",""data"":{""x"":670,""y"":525,""timestamp"":30560.399999976158},""timestamp"":30560.5},{""type"":""chart_hover"",""data"":{""x"":675,""y"":524,""timestamp"":30568.899999976158},""timestamp"":30568.899999976158},{""type"":""chart_hover"",""data"":{""x"":680,""y"":523,""timestamp"":30577.299999952316},""timestamp"":30577.299999952316},{""type"":""chart_hover"",""data"":{""x"":685,""y"":522,""timestamp"":30586},""timestamp"":30586.099999964237},{""type"":""chart_hover"",""data"":{""x"":690,""y"":521,""timestamp"":30592.899999976158},""timestamp"":30592.899999976158},{""type"":""chart_hover"",""data"":{""x"":700,""y"":519,""timestamp"":30601.19999998808},""timestamp"":30601.19999998808},{""type"":""chart_hover"",""data"":{""x"":704,""y"":518,""timestamp"":30610.5},""timestamp"":30610.5},{""type"":""chart_hover"",""data"":{""x"":710,""y"":517,""timestamp"":30617.399999976158},""timestamp"":30617.399999976158},{""type"":""chart_hover"",""data"":{""x"":713,""y"":516,""timestamp"":30626},""timestamp"":30626},{""type"":""chart_hover"",""data"":{""x"":717,""y"":515,""timestamp"":30635.5},""timestamp"":30635.5},{""type"":""chart_hover"",""data"":{""x"":720,""y"":513,""timestamp"":30642.5},""timestamp"":30642.5},{""type"":""chart_hover"",""data"":{""x"":723,""y"":512,""timestamp"":30650.69999998808},""timestamp"":30650.69999998808},{""type"":""chart_hover"",""data"":{""x"":725,""y"":510,""timestamp"":30659.099999964237},""timestamp"":30659.099999964237},{""type"":""chart_hover"",""data"":{""x"":728,""y"":508,""timestamp"":30667.5},""timestamp"":30667.599999964237},{""type"":""chart_hover"",""data"":{""x"":730,""y"":507,""timestamp"":30676.299999952316},""timestamp"":30676.299999952316},{""type"":""chart_hover"",""data"":{""x"":732,""y"":506,""timestamp"":30685},""timestamp"":30685},{""type"":""chart_hover"",""data"":{""x"":733,""y"":504,""timestamp"":30692.399999976158},""timestamp"":30692.5},{""type"":""chart_hover"",""data"":{""x"":735,""y"":504,""timestamp"":30702},""timestamp"":30702},{""type"":""chart_hover"",""data"":{""x"":737,""y"":503,""timestamp"":30708.899999976158},""timestamp"":30708.899999976158},{""type"":""chart_hover"",""data"":{""x"":740,""y"":502,""timestamp"":30717.399999976158},""timestamp"":30717.399999976158},{""type"":""chart_hover"",""data"":{""x"":743,""y"":501,""timestamp"":30726.099999964237},""timestamp"":30726.099999964237},{""type"":""chart_hover"",""data"":{""x"":745,""y"":500,""timestamp"":30734},""timestamp"":30734},{""type"":""chart_hover"",""data"":{""x"":747,""y"":500,""timestamp"":30742.799999952316},""timestamp"":30742.799999952316},{""type"":""chart_hover"",""data"":{""x"":748,""y"":499,""timestamp"":30750.5},""timestamp"":30750.5},{""type"":""chart_hover"",""data"":{""x"":750,""y"":499,""timestamp"":30758.899999976158},""timestamp"":30758.899999976158},{""type"":""chart_hover"",""data"":{""x"":752,""y"":498,""timestamp"":30767.599999964237},""timestamp"":30767.599999964237},{""type"":""chart_hover"",""data"":{""x"":752,""y"":497,""timestamp"":30775.399999976158},""timestamp"":30775.399999976158},{""type"":""chart_hover"",""data"":{""x"":753,""y"":497,""timestamp"":30784.099999964237},""timestamp"":30784.19999998808},{""type"":""chart_hover"",""data"":{""x"":755,""y"":496,""timestamp"":30792.399999976158},""timestamp"":30792.399999976158},{""type"":""chart_hover"",""data"":{""x"":756,""y"":496,""timestamp"":30801.5},""timestamp"":30801.5},{""type"":""chart_hover"",""data"":{""x"":757,""y"":495,""timestamp"":30809.899999976158},""timestamp"":30810},{""type"":""chart_hover"",""data"":{""x"":758,""y"":494,""timestamp"":30816.799999952316},""timestamp"":30816.799999952316},{""type"":""chart_hover"",""data"":{""x"":759,""y"":493,""timestamp"":30841.099999964237},""timestamp"":30841.099999964237},{""type"":""chart_hover"",""data"":{""x"":760,""y"":493,""timestamp"":30849.799999952316},""timestamp"":30849.799999952316},{""type"":""chart_hover"",""data"":{""x"":759,""y"":493,""timestamp"":30957.69999998808},""timestamp"":30957.69999998808},{""type"":""chart_hover"",""data"":{""x"":758,""y"":493,""timestamp"":30972.5},""timestamp"":30972.5},{""type"":""chart_hover"",""data"":{""x"":757,""y"":493,""timestamp"":30980.69999998808},""timestamp"":30980.69999998808},{""type"":""chart_hover"",""data"":{""x"":756,""y"":493,""timestamp"":30998.899999976158},""timestamp"":30998.899999976158},{""type"":""chart_hover"",""data"":{""x"":755,""y"":493,""timestamp"":31007.799999952316},""timestamp"":31007.799999952316},{""type"":""chart_hover"",""data"":{""x"":754,""y"":493,""timestamp"":31018.899999976158},""timestamp"":31018.899999976158},{""type"":""chart_hover"",""data"":{""x"":753,""y"":494,""timestamp"":31028.799999952316},""timestamp"":31028.799999952316},{""type"":""chart_hover"",""data"":{""x"":752,""y"":494,""timestamp"":31036},""timestamp"":31036},{""type"":""chart_hover"",""data"":{""x"":750,""y"":496,""timestamp"":31042.299999952316},""timestamp"":31042.299999952316},{""type"":""chart_hover"",""data"":{""x"":747,""y"":497,""timestamp"":31051},""timestamp"":31051},{""type"":""chart_hover"",""data"":{""x"":743,""y"":501,""timestamp"":31058.299999952316},""timestamp"":31058.299999952316},{""type"":""chart_hover"",""data"":{""x"":739,""y"":504,""timestamp"":31066.69999998808},""timestamp"":31066.69999998808},{""type"":""chart_hover"",""data"":{""x"":733,""y"":507,""timestamp"":31073.899999976158},""timestamp"":31073.899999976158},{""type"":""chart_hover"",""data"":{""x"":726,""y"":511,""timestamp"":31082.099999964237},""timestamp"":31082.099999964237},{""type"":""chart_hover"",""data"":{""x"":717,""y"":517,""timestamp"":31090.299999952316},""timestamp"":31090.299999952316},{""type"":""chart_hover"",""data"":{""x"":708,""y"":523,""timestamp"":31098.799999952316},""timestamp"":31098.799999952316},{""type"":""chart_hover"",""data"":{""x"":696,""y"":527,""timestamp"":31107},""timestamp"":31107},{""type"":""chart_hover"",""data"":{""x"":686,""y"":530,""timestamp"":31115.599999964237},""timestamp"":31115.599999964237},{""type"":""chart_hover"",""data"":{""x"":675,""y"":533,""timestamp"":31123.899999976158},""timestamp"":31123.899999976158},{""type"":""chart_hover"",""data"":{""x"":664,""y"":535,""timestamp"":31132.299999952316},""timestamp"":31132.299999952316},{""type"":""chart_hover"",""data"":{""x"":654,""y"":538,""timestamp"":31140.5},""timestamp"":31140.5},{""type"":""chart_hover"",""data"":{""x"":642,""y"":542,""timestamp"":31149},""timestamp"":31149},{""type"":""chart_hover"",""data"":{""x"":629,""y"":544,""timestamp"":31157},""timestamp"":31157},{""type"":""chart_hover"",""data"":{""x"":615,""y"":549,""timestamp"":31165.599999964237},""timestamp"":31165.599999964237},{""type"":""chart_hover"",""data"":{""x"":600,""y"":553,""timestamp"":31174.299999952316},""timestamp"":31174.299999952316},{""type"":""chart_leave"",""data"":{""timestamp"":31182},""timestamp"":31182},{""type"":""chart_enter"",""data"":{""timestamp"":39683.69999998808},""timestamp"":39683.69999998808},{""type"":""chart_hover"",""data"":{""x"":830,""y"":553,""timestamp"":39683.69999998808},""timestamp"":39683.69999998808},{""type"":""chart_hover"",""data"":{""x"":837,""y"":552,""timestamp"":39691.89999997616},""timestamp"":39692},{""type"":""chart_hover"",""data"":{""x"":840,""y"":551,""timestamp"":39702.299999952316},""timestamp"":39702.299999952316},{""type"":""chart_hover"",""data"":{""x"":846,""y"":550,""timestamp"":39713.39999997616},""timestamp"":39713.39999997616},{""type"":""chart_hover"",""data"":{""x"":849,""y"":549,""timestamp"":39727.299999952316},""timestamp"":39727.299999952316},{""type"":""chart_hover"",""data"":{""x"":852,""y"":546,""timestamp"":39735.19999998808},""timestamp"":39735.19999998808},{""type"":""chart_hover"",""data"":{""x"":855,""y"":545,""timestamp"":39743.39999997616},""timestamp"":39743.39999997616},{""type"":""chart_hover"",""data"":{""x"":861,""y"":539,""timestamp"":39751.19999998808},""timestamp"":39751.19999998808},{""type"":""chart_hover"",""data"":{""x"":864,""y"":536,""timestamp"":39759.5},""timestamp"":39759.5},{""type"":""chart_hover"",""data"":{""x"":868,""y"":533,""timestamp"":39768.19999998808},""timestamp"":39768.19999998808},{""type"":""chart_hover"",""data"":{""x"":872,""y"":529,""timestamp"":39776.09999996424},""timestamp"":39776.09999996424},{""type"":""chart_hover"",""data"":{""x"":875,""y"":527,""timestamp"":39785.69999998808},""timestamp"":39785.69999998808},{""type"":""chart_hover"",""data"":{""x"":879,""y"":525,""timestamp"":39794.19999998808},""timestamp"":39794.19999998808},{""type"":""chart_hover"",""data"":{""x"":882,""y"":522,""timestamp"":39801.39999997616},""timestamp"":39801.39999997616},{""type"":""chart_hover"",""data"":{""x"":884,""y"":520,""timestamp"":39810.69999998808},""timestamp"":39810.69999998808},{""type"":""chart_hover"",""data"":{""x"":888,""y"":518,""timestamp"":39819.39999997616},""timestamp"":39819.39999997616},{""type"":""chart_hover"",""data"":{""x"":892,""y"":515,""timestamp"":39826.299999952316},""timestamp"":39826.39999997616},{""type"":""chart_hover"",""data"":{""x"":895,""y"":513,""timestamp"":39836.09999996424},""timestamp"":39836.09999996424},{""type"":""chart_hover"",""data"":{""x"":897,""y"":513,""timestamp"":39843.09999996424},""timestamp"":39843.09999996424},{""type"":""chart_hover"",""data"":{""x"":900,""y"":512,""timestamp"":39851},""timestamp"":39851},{""type"":""chart_hover"",""data"":{""x"":903,""y"":511,""timestamp"":39859.69999998808},""timestamp"":39859.69999998808},{""type"":""chart_hover"",""data"":{""x"":905,""y"":510,""timestamp"":39867.69999998808},""timestamp"":39867.69999998808},{""type"":""chart_hover"",""data"":{""x"":906,""y"":509,""timestamp"":39876.39999997616},""timestamp"":39876.5},{""type"":""chart_hover"",""data"":{""x"":908,""y"":508,""timestamp"":39884.59999996424},""timestamp"":39884.59999996424},{""type"":""chart_hover"",""data"":{""x"":907,""y"":508,""timestamp"":39996.799999952316},""timestamp"":39996.799999952316},{""type"":""chart_leave"",""data"":{""timestamp"":40060},""timestamp"":40060},{""type"":""chart_enter"",""data"":{""timestamp"":46948.59999996424},""timestamp"":46948.59999996424},{""type"":""chart_hover"",""data"":{""x"":497,""y"":355,""timestamp"":46948.59999996424},""timestamp"":46948.59999996424},{""type"":""chart_hover"",""data"":{""x"":499,""y"":353,""timestamp"":46972.69999998808},""timestamp"":46972.69999998808},{""type"":""chart_hover"",""data"":{""x"":500,""y"":352,""timestamp"":46983.19999998808},""timestamp"":46983.19999998808},{""type"":""chart_hover"",""data"":{""x"":500,""y"":351,""timestamp"":46996.39999997616},""timestamp"":46996.39999997616},{""type"":""chart_hover"",""data"":{""x"":501,""y"":351,""timestamp"":47005.59999996424},""timestamp"":47005.59999996424},{""type"":""chart_hover"",""data"":{""x"":502,""y"":350,""timestamp"":47021.299999952316},""timestamp"":47021.299999952316},{""type"":""chart_hover"",""data"":{""x"":502,""y"":349,""timestamp"":47063.5},""timestamp"":47063.5},{""type"":""chart_hover"",""data"":{""x"":503,""y"":349,""timestamp"":47080.19999998808},""timestamp"":47080.19999998808},{""type"":""chart_hover"",""data"":{""x"":504,""y"":348,""timestamp"":47097.299999952316},""timestamp"":47097.299999952316},{""type"":""chart_hover"",""data"":{""x"":505,""y"":348,""timestamp"":47113.299999952316},""timestamp"":47113.299999952316},{""type"":""chart_hover"",""data"":{""x"":505,""y"":347,""timestamp"":47121.59999996424},""timestamp"":47121.59999996424},{""type"":""chart_hover"",""data"":{""x"":506,""y"":346,""timestamp"":47130},""timestamp"":47130},{""type"":""chart_hover"",""data"":{""x"":507,""y"":346,""timestamp"":47146.39999997616},""timestamp"":47146.39999997616},{""type"":""chart_hover"",""data"":{""x"":508,""y"":345,""timestamp"":47170.89999997616},""timestamp"":47170.89999997616},{""type"":""chart_hover"",""data"":{""x"":508,""y"":344,""timestamp"":47180},""timestamp"":47180},{""type"":""chart_hover"",""data"":{""x"":509,""y"":344,""timestamp"":47196.59999996424},""timestamp"":47196.59999996424},{""type"":""chart_hover"",""data"":{""x"":510,""y"":343,""timestamp"":47205.19999998808},""timestamp"":47205.19999998808},{""type"":""chart_hover"",""data"":{""x"":511,""y"":343,""timestamp"":47212.69999998808},""timestamp"":47212.69999998808},{""type"":""chart_hover"",""data"":{""x"":511,""y"":342,""timestamp"":47221.69999998808},""timestamp"":47221.799999952316},{""type"":""chart_hover"",""data"":{""x"":512,""y"":341,""timestamp"":47230.19999998808},""timestamp"":47230.19999998808},{""type"":""chart_hover"",""data"":{""x"":513,""y"":340,""timestamp"":47353.89999997616},""timestamp"":47354},{""type"":""chart_hover"",""data"":{""x"":514,""y"":339,""timestamp"":47383.59999996424},""timestamp"":47383.59999996424},{""type"":""chart_hover"",""data"":{""x"":514,""y"":338,""timestamp"":47515.299999952316},""timestamp"":47515.299999952316},{""type"":""chart_hover"",""data"":{""x"":514,""y"":337,""timestamp"":47601},""timestamp"":47601},{""type"":""chart_hover"",""data"":{""x"":513,""y"":337,""timestamp"":47780.59999996424},""timestamp"":47780.59999996424},{""type"":""chart_hover"",""data"":{""x"":514,""y"":337,""timestamp"":47980.69999998808},""timestamp"":47980.69999998808},{""type"":""chart_hover"",""data"":{""x"":515,""y"":336,""timestamp"":48002.09999996424},""timestamp"":48002.09999996424},{""type"":""chart_hover"",""data"":{""x"":515,""y"":335,""timestamp"":48010.5},""timestamp"":48010.5},{""type"":""chart_hover"",""data"":{""x"":516,""y"":333,""timestamp"":48020.5},""timestamp"":48020.5},{""type"":""chart_hover"",""data"":{""x"":517,""y"":333,""timestamp"":48029.09999996424},""timestamp"":48029.09999996424},{""type"":""chart_hover"",""data"":{""x"":517,""y"":331,""timestamp"":48037},""timestamp"":48037},{""type"":""chart_hover"",""data"":{""x"":518,""y"":331,""timestamp"":48046.09999996424},""timestamp"":48046.09999996424},{""type"":""chart_hover"",""data"":{""x"":518,""y"":330,""timestamp"":48051.89999997616},""timestamp"":48051.89999997616},{""type"":""chart_hover"",""data"":{""x"":518,""y"":329,""timestamp"":48060.5},""timestamp"":48060.5},{""type"":""chart_hover"",""data"":{""x"":519,""y"":328,""timestamp"":48069.19999998808},""timestamp"":48069.19999998808},{""type"":""chart_hover"",""data"":{""x"":519,""y"":327,""timestamp"":48078},""timestamp"":48078},{""type"":""chart_hover"",""data"":{""x"":519,""y"":325,""timestamp"":48085.799999952316},""timestamp"":48085.799999952316},{""type"":""chart_hover"",""data"":{""x"":520,""y"":323,""timestamp"":48093.59999996424},""timestamp"":48093.59999996424},{""type"":""chart_hover"",""data"":{""x"":521,""y"":322,""timestamp"":48103.39999997616},""timestamp"":48103.39999997616},{""type"":""chart_hover"",""data"":{""x"":522,""y"":319,""timestamp"":48110.69999998808},""timestamp"":48110.69999998808},{""type"":""chart_hover"",""data"":{""x"":522,""y"":317,""timestamp"":48119.09999996424},""timestamp"":48119.09999996424},{""type"":""chart_hover"",""data"":{""x"":523,""y"":315,""timestamp"":48128.59999996424},""timestamp"":48128.69999998808},{""type"":""chart_hover"",""data"":{""x"":524,""y"":311,""timestamp"":48138.5},""timestamp"":48138.5},{""type"":""chart_hover"",""data"":{""x"":525,""y"":308,""timestamp"":48147.39999997616},""timestamp"":48147.39999997616},{""type"":""chart_hover"",""data"":{""x"":525,""y"":307,""timestamp"":48160.299999952316},""timestamp"":48160.299999952316},{""type"":""chart_hover"",""data"":{""x"":526,""y"":305,""timestamp"":48164.299999952316},""timestamp"":48164.299999952316},{""type"":""chart_hover"",""data"":{""x"":527,""y"":304,""timestamp"":48172},""timestamp"":48172},{""type"":""chart_hover"",""data"":{""x"":528,""y"":301,""timestamp"":48179.299999952316},""timestamp"":48179.299999952316},{""type"":""chart_hover"",""data"":{""x"":529,""y"":298,""timestamp"":48186.299999952316},""timestamp"":48186.299999952316},{""type"":""chart_hover"",""data"":{""x"":531,""y"":295,""timestamp"":48198.299999952316},""timestamp"":48198.299999952316},{""type"":""chart_hover"",""data"":{""x"":532,""y"":292,""timestamp"":48202.09999996424},""timestamp"":48202.09999996424},{""type"":""chart_hover"",""data"":{""x"":537,""y"":279,""timestamp"":48227.59999996424},""timestamp"":48227.59999996424},{""type"":""chart_hover"",""data"":{""x"":540,""y"":274,""timestamp"":48236.69999998808},""timestamp"":48236.69999998808},{""type"":""chart_hover"",""data"":{""x"":543,""y"":269,""timestamp"":48244.09999996424},""timestamp"":48244.09999996424},{""type"":""chart_hover"",""data"":{""x"":545,""y"":266,""timestamp"":48252.89999997616},""timestamp"":48252.89999997616},{""type"":""chart_hover"",""data"":{""x"":547,""y"":263,""timestamp"":48260.09999996424},""timestamp"":48260.09999996424},{""type"":""chart_hover"",""data"":{""x"":548,""y"":262,""timestamp"":48268.799999952316},""timestamp"":48268.799999952316},{""type"":""chart_hover"",""data"":{""x"":553,""y"":256,""timestamp"":48276.799999952316},""timestamp"":48276.799999952316},{""type"":""chart_hover"",""data"":{""x"":555,""y"":253,""timestamp"":48284.89999997616},""timestamp"":48285},{""type"":""chart_hover"",""data"":{""x"":557,""y"":251,""timestamp"":48294.19999998808},""timestamp"":48294.19999998808},{""type"":""chart_hover"",""data"":{""x"":559,""y"":246,""timestamp"":48301.69999998808},""timestamp"":48301.69999998808},{""type"":""chart_hover"",""data"":{""x"":562,""y"":241,""timestamp"":48309.89999997616},""timestamp"":48309.89999997616},{""type"":""chart_hover"",""data"":{""x"":565,""y"":236,""timestamp"":48318.799999952316},""timestamp"":48318.799999952316},{""type"":""chart_hover"",""data"":{""x"":567,""y"":231,""timestamp"":48327.19999998808},""timestamp"":48327.19999998808},{""type"":""chart_hover"",""data"":{""x"":570,""y"":226,""timestamp"":48335.39999997616},""timestamp"":48335.39999997616},{""type"":""chart_hover"",""data"":{""x"":573,""y"":221,""timestamp"":48343.69999998808},""timestamp"":48343.69999998808},{""type"":""chart_hover"",""data"":{""x"":575,""y"":217,""timestamp"":48351.799999952316},""timestamp"":48351.799999952316},{""type"":""chart_hover"",""data"":{""x"":577,""y"":214,""timestamp"":48360.19999998808},""timestamp"":48360.19999998808},{""type"":""chart_hover"",""data"":{""x"":579,""y"":211,""timestamp"":48368.299999952316},""timestamp"":48368.299999952316},{""type"":""chart_hover"",""data"":{""x"":581,""y"":208,""timestamp"":48376.69999998808},""timestamp"":48376.69999998808},{""type"":""chart_hover"",""data"":{""x"":582,""y"":206,""timestamp"":48385.19999998808},""timestamp"":48385.19999998808},{""type"":""chart_hover"",""data"":{""x"":584,""y"":204,""timestamp"":48393.39999997616},""timestamp"":48393.39999997616},{""type"":""chart_hover"",""data"":{""x"":585,""y"":202,""timestamp"":48402.5},""timestamp"":48402.5},{""type"":""chart_hover"",""data"":{""x"":586,""y"":202,""timestamp"":48411.299999952316},""timestamp"":48411.299999952316},{""type"":""chart_hover"",""data"":{""x"":586,""y"":201,""timestamp"":48443.59999996424},""timestamp"":48443.59999996424},{""type"":""chart_hover"",""data"":{""x"":588,""y"":199,""timestamp"":48451.39999997616},""timestamp"":48451.39999997616},{""type"":""chart_hover"",""data"":{""x"":588,""y"":197,""timestamp"":48460},""timestamp"":48460},{""type"":""chart_hover"",""data"":{""x"":590,""y"":196,""timestamp"":48468.19999998808},""timestamp"":48468.19999998808},{""type"":""chart_hover"",""data"":{""x"":591,""y"":195,""timestamp"":48476.39999997616},""timestamp"":48476.39999997616},{""type"":""chart_hover"",""data"":{""x"":591,""y"":193,""timestamp"":48485},""timestamp"":48485},{""type"":""chart_hover"",""data"":{""x"":592,""y"":193,""timestamp"":48493.09999996424},""timestamp"":48493.09999996424},{""type"":""chart_hover"",""data"":{""x"":593,""y"":193,""timestamp"":48501.799999952316},""timestamp"":48501.799999952316},{""type"":""chart_hover"",""data"":{""x"":593,""y"":192,""timestamp"":48509.799999952316},""timestamp"":48509.799999952316},{""type"":""chart_hover"",""data"":{""x"":592,""y"":193,""timestamp"":48629.09999996424},""timestamp"":48629.09999996424},{""type"":""chart_hover"",""data"":{""x"":591,""y"":193,""timestamp"":48655.89999997616},""timestamp"":48655.89999997616},{""type"":""chart_hover"",""data"":{""x"":591,""y"":194,""timestamp"":48666.299999952316},""timestamp"":48666.299999952316},{""type"":""chart_hover"",""data"":{""x"":589,""y"":195,""timestamp"":48669.799999952316},""timestamp"":48669.799999952316},{""type"":""chart_hover"",""data"":{""x"":588,""y"":195,""timestamp"":48676.19999998808},""timestamp"":48676.19999998808},{""type"":""chart_hover"",""data"":{""x"":587,""y"":196,""timestamp"":48684.39999997616},""timestamp"":48684.39999997616},{""type"":""chart_hover"",""data"":{""x"":585,""y"":197,""timestamp"":48692.69999998808},""timestamp"":48692.69999998808},{""type"":""chart_hover"",""data"":{""x"":584,""y"":197,""timestamp"":48700.89999997616},""timestamp"":48701},{""type"":""chart_hover"",""data"":{""x"":582,""y"":198,""timestamp"":48709.19999998808},""timestamp"":48709.19999998808},{""type"":""chart_hover"",""data"":{""x"":581,""y"":200,""timestamp"":48717.39999997616},""timestamp"":48717.39999997616},{""type"":""chart_hover"",""data"":{""x"":579,""y"":202,""timestamp"":48726.39999997616},""timestamp"":48726.39999997616},{""type"":""chart_hover"",""data"":{""x"":577,""y"":204,""timestamp"":48734.09999996424},""timestamp"":48734.09999996424},{""type"":""chart_hover"",""data"":{""x"":573,""y"":206,""timestamp"":48742.39999997616},""timestamp"":48742.39999997616},{""type"":""chart_hover"",""data"":{""x"":569,""y"":210,""timestamp"":48751},""timestamp"":48751},{""type"":""chart_hover"",""data"":{""x"":565,""y"":213,""timestamp"":48759.09999996424},""timestamp"":48759.09999996424},{""type"":""chart_hover"",""data"":{""x"":560,""y"":219,""timestamp"":48767.5},""timestamp"":48767.5},{""type"":""chart_hover"",""data"":{""x"":555,""y"":224,""timestamp"":48775.799999952316},""timestamp"":48775.799999952316},{""type"":""chart_hover"",""data"":{""x"":549,""y"":230,""timestamp"":48784.299999952316},""timestamp"":48784.299999952316},{""type"":""chart_hover"",""data"":{""x"":539,""y"":240,""timestamp"":48792.19999998808},""timestamp"":48792.19999998808},{""type"":""chart_hover"",""data"":{""x"":535,""y"":246,""timestamp"":48800.799999952316},""timestamp"":48800.799999952316},{""type"":""chart_hover"",""data"":{""x"":531,""y"":251,""timestamp"":48808.89999997616},""timestamp"":48808.89999997616},{""type"":""chart_hover"",""data"":{""x"":527,""y"":256,""timestamp"":48817.39999997616},""timestamp"":48817.39999997616},{""type"":""chart_hover"",""data"":{""x"":522,""y"":262,""timestamp"":48825.89999997616},""timestamp"":48825.89999997616},{""type"":""chart_hover"",""data"":{""x"":517,""y"":266,""timestamp"":48834.09999996424},""timestamp"":48834.09999996424},{""type"":""chart_hover"",""data"":{""x"":512,""y"":271,""timestamp"":48842.799999952316},""timestamp"":48842.799999952316},{""type"":""chart_hover"",""data"":{""x"":506,""y"":277,""timestamp"":48850.69999998808},""timestamp"":48850.69999998808},{""type"":""chart_hover"",""data"":{""x"":501,""y"":285,""timestamp"":48859.19999998808},""timestamp"":48859.19999998808},{""type"":""chart_hover"",""data"":{""x"":495,""y"":293,""timestamp"":48867.69999998808},""timestamp"":48867.69999998808},{""type"":""chart_hover"",""data"":{""x"":490,""y"":301,""timestamp"":48876.09999996424},""timestamp"":48876.09999996424},{""type"":""chart_hover"",""data"":{""x"":482,""y"":306,""timestamp"":48884.39999997616},""timestamp"":48884.39999997616},{""type"":""chart_hover"",""data"":{""x"":475,""y"":314,""timestamp"":48892.5},""timestamp"":48892.5},{""type"":""chart_hover"",""data"":{""x"":468,""y"":323,""timestamp"":48900.89999997616},""timestamp"":48900.89999997616},{""type"":""chart_hover"",""data"":{""x"":455,""y"":340,""timestamp"":48909.09999996424},""timestamp"":48909.09999996424},{""type"":""chart_hover"",""data"":{""x"":447,""y"":348,""timestamp"":48917.69999998808},""timestamp"":48917.69999998808},{""type"":""chart_leave"",""data"":{""timestamp"":48926.299999952316},""timestamp"":48926.299999952316},{""type"":""chart_enter"",""data"":{""timestamp"":60064.09999996424},""timestamp"":60064.09999996424},{""type"":""chart_hover"",""data"":{""x"":656,""y"":354,""timestamp"":60064.09999996424},""timestamp"":60064.09999996424},{""type"":""chart_hover"",""data"":{""x"":659,""y"":347,""timestamp"":60073.5},""timestamp"":60073.5},{""type"":""chart_hover"",""data"":{""x"":664,""y"":333,""timestamp"":60092.89999997616},""timestamp"":60092.89999997616},{""type"":""chart_hover"",""data"":{""x"":670,""y"":315,""timestamp"":60107.09999996424},""timestamp"":60107.09999996424},{""type"":""chart_hover"",""data"":{""x"":673,""y"":306,""timestamp"":60115.09999996424},""timestamp"":60115.09999996424},{""type"":""chart_hover"",""data"":{""x"":675,""y"":298,""timestamp"":60123.09999996424},""timestamp"":60123.09999996424},{""type"":""chart_hover"",""data"":{""x"":678,""y"":290,""timestamp"":60132},""timestamp"":60132},{""type"":""chart_hover"",""data"":{""x"":681,""y"":282,""timestamp"":60140.299999952316},""timestamp"":60140.299999952316},{""type"":""chart_hover"",""data"":{""x"":683,""y"":276,""timestamp"":60150},""timestamp"":60150.09999996424},{""type"":""chart_hover"",""data"":{""x"":684,""y"":271,""timestamp"":60157.799999952316},""timestamp"":60157.799999952316},{""type"":""chart_hover"",""data"":{""x"":686,""y"":261,""timestamp"":60165.19999998808},""timestamp"":60165.299999952316},{""type"":""chart_hover"",""data"":{""x"":687,""y"":256,""timestamp"":60173.39999997616},""timestamp"":60173.39999997616},{""type"":""chart_hover"",""data"":{""x"":688,""y"":253,""timestamp"":60181.59999996424},""timestamp"":60181.69999998808},{""type"":""chart_hover"",""data"":{""x"":688,""y"":248,""timestamp"":60190.299999952316},""timestamp"":60190.299999952316},{""type"":""chart_hover"",""data"":{""x"":689,""y"":242,""timestamp"":60197.89999997616},""timestamp"":60197.89999997616},{""type"":""chart_hover"",""data"":{""x"":690,""y"":237,""timestamp"":60206.39999997616},""timestamp"":60206.39999997616},{""type"":""chart_hover"",""data"":{""x"":690,""y"":233,""timestamp"":60215.5},""timestamp"":60215.5},{""type"":""chart_hover"",""data"":{""x"":691,""y"":228,""timestamp"":60223.799999952316},""timestamp"":60223.799999952316},{""type"":""chart_hover"",""data"":{""x"":692,""y"":223,""timestamp"":60233.59999996424},""timestamp"":60233.59999996424},{""type"":""chart_hover"",""data"":{""x"":692,""y"":219,""timestamp"":60240.799999952316},""timestamp"":60240.799999952316},{""type"":""chart_hover"",""data"":{""x"":693,""y"":216,""timestamp"":60248.19999998808},""timestamp"":60248.299999952316},{""type"":""chart_hover"",""data"":{""x"":693,""y"":213,""timestamp"":60256.59999996424},""timestamp"":60256.59999996424},{""type"":""chart_hover"",""data"":{""x"":693,""y"":211,""timestamp"":60266.299999952316},""timestamp"":60266.299999952316},{""type"":""chart_hover"",""data"":{""x"":693,""y"":208,""timestamp"":60273.799999952316},""timestamp"":60273.799999952316},{""type"":""chart_hover"",""data"":{""x"":693,""y"":207,""timestamp"":60281.69999998808},""timestamp"":60281.69999998808},{""type"":""chart_hover"",""data"":{""x"":693,""y"":205,""timestamp"":60290},""timestamp"":60290},{""type"":""chart_hover"",""data"":{""x"":693,""y"":204,""timestamp"":60309.19999998808},""timestamp"":60309.19999998808},{""type"":""chart_hover"",""data"":{""x"":692,""y"":206,""timestamp"":60398.69999998808},""timestamp"":60398.69999998808},{""type"":""chart_hover"",""data"":{""x"":691,""y"":208,""timestamp"":60406.799999952316},""timestamp"":60406.799999952316},{""type"":""chart_hover"",""data"":{""x"":6