city_a_estimate,city_b_estimate,click_events,comprehension_ease,condition,condition_id,condition_name,confidence_label,confidence_rating,data_trust,display_format,end_time,failed_audio,failed_images,failed_video,hover_events,interaction_log,internal_node_id,participant_id,percent_score,phase,phase1_complete,phase2_complete,predictions_shown,probability_estimate,question_order,response,responses,round,rt,rt_total,skeptical_rating,slider_moved,start_time,stimulus,success,time_elapsed,time_on_viz,timeout,total_interactions,total_questions,total_score,travel_choice,trial_index,trial_type,trust_composite,usability_composite,usability_difficulty,view_history,visualization_literacy_score,visualization_shown
,,,,,,,,,,,,"[]","[]","[]",,,0.0-0.0,654a86d08714f739c9fcea21,,,,,,,,,,,,,,,,,true,257,,false,,,,,0,preload,,,,,,
,,,,,,,,,,,,,,,,,0.0-1.0,654a86d08714f739c9fcea21,,,,,,,,0,,,23569,,,,,"
	        <div class=""welcome-screen"">
	            <h1>Air Quality Prediction Study</h1>
	            <p>Welcome! You are about to participate in a research study about how people make decisions using air quality predictions. This study examines how different ways of presenting prediction information affect trust and decision-making. The study will take approximately 15 minutes.</p>
	            <div class=""study-info"">
	                <h3>What you'll do:</h3>
	                <ul>
	                    <li>Complete a brief assessment of visualization understanding</li>
	                    <li>Make predictions about air quality in two cities</li>
	                    <li>Answer questions about your confidence and trust</li>
						<li>Report basic demographic data</li>
	                </ul>
	            </div>
	        </div>
	    ",,23828,,,,,,,1,html-button-response,,,,,,
,,,,,,,,,,,,,,,,,0.0-2.0,654a86d08714f739c9fcea21,,,,,,,,,,,6223,,,,,,true,31057,,,,,,,2,fullscreen,,,,,,
,,,,,,,,,,,,,,,,,0.0-3.0,654a86d08714f739c9fcea21,,,,,,,,"{""participant_id"":""654a86d08714f739c9fcea21""}",,,24297,,,,,,,55359,,,,,,,3,survey-text,,,,,,
,,,,,,,,,,,,,,,,,0.0-4.0,654a86d08714f739c9fcea21,,,,,,,,0,,,58204,,,,,"
	        <div class=""consent-form"">
	            <h2>Consent Form</h2>
	            <div class=""consent-header"">
	                <p><strong>Principal Investigator:</strong> Dr. Cindy Xiong Bearfield, Assistant Professor</p>
	                <p><strong>Study Title:</strong> Trusting What We See: Effect of Interactivity in Visual Data Analysis</p>
	                <p><strong>Supported By:</strong> Georgia Institute of Technology</p>
	            </div>
	            
	            <div class=""consent-details"">
	                <h3>WHAT IS THIS FORM?</h3>
	                <p>This form is called a Consent Form. It will give you information about the study so you can make an informed decision about participation in this research. We encourage you to take some time to think this over and ask questions now and at any other time. If you decide to participate, you will be asked to sign this form and you will be given a copy for your records.</p>

	                <h3>WHAT ARE SOME OF THE IMPORTANT ASPECTS OF THIS RESEARCH STUDY THAT I SHOULD BE AWARE OF?</h3>
	                <ul>
	                    <li>Whether or not you take part is up to you.</li>
	                    <li>You can choose not to take part.</li>
	                    <li>You can agree to take part and later change your mind.</li>
	                    <li>Your decision will not be held against you.</li>
	                </ul>

	                <h3>WHY ARE WE DOING THIS RESEARCH STUDY?</h3>
	                <p>The purpose of our study is to explore the visualization design space so we can understand how people perceive, interpret, and make decisions from visualizations. The results from this study can help us design visualizations and visualization guidelines to help people better communicate and understand data.</p>

	                <h3>WHO CAN PARTICIPATE IN THIS RESEARCH STUDY?</h3>
	                <p>Participants in this study must be at least 18 years of age or older and have general familiarity with using web-based systems. Participants currently outside of the U.S. cannot participate in this study (e.g. in the European Union or China).</p>

	                <h3>WHAT COMPENSATION I WILL RECEIVE?</h3>
	                <p>You will receive payment through Prolific worth $12/hour for participating in this study. We expect this study to take less than 20 minutes. Your participation is entirely voluntary. You are free to withdraw at any time, and if you do, you will receive partial payment for your time.</p>

	                <h3>HOW MANY PEOPLE WILL PARTICIPATE?</h3>
	                <p>We expect about 200 people will be in this research study.</p>

	                <h3>WHAT WILL I BE ASKED TO DO AND HOW MUCH TIME WILL IT TAKE?</h3>
	                <p>We will show you several data visualizations or components of a visualization and ask you to perform a visual task with the visualization on a computer screen, such as counting, searching, recognizing, memorizing, or describing the information presented to you. We may also ask you to fill out questionnaires concerning your thoughts regarding the visualization you saw. We expect that you will be in this research study to take between 15 and 60 minutes. We expect this study to be a one-off session and will not contact you regarding the study itself in the future.</p>

	                <h3>WILL BEING IN THIS RESEARCH STUDY HELP ME IN ANY WAY?</h3>
	                <p>You are not likely to have any direct benefit from being in this research study. The potential benefits to you from participation may include learning about how data visualization research is conducted, and you may learn about issues of current interest in data visualization and psychology.</p>

	                <h3>WHAT ARE MY RISKS OF BEING IN THIS RESEARCH STUDY?</h3>
	                <p>Your participation in this study does not involve any risks other than what you would encounter in daily life. In particular, you may experience fatigue or boredom, however, you may take breaks between tasks. The effects of participating should be comparable to those you would experience from viewing a computer monitor and using a keyboard. You may withdraw at any time.</p>

	                <h3>HOW WILL MY PERSONAL INFORMATION BE PROTECTED?</h3>
	                <p>We will comply with any applicable laws and regulations regarding confidentiality. To make sure that this research is being carried out in the proper way, the Georgia Institute of Technology IRB may review study records. The Office of Human Research Protections may also look at study records.</p>
	                <p>Efforts will be made to limit the use and disclosure of your personal information, including research study records, to people who need to review this information. We cannot promise complete secrecy. Organizations that may inspect and copy your information include the IRB and other representatives of this institution. Please be notified that our data privacy policy is based on U.S. regulations. Participants who are out of the U.S. might be excluded due to different data privacy requirements.</p>
	                <p><strong>Data Sharing:</strong> De-identified data from this study will be shared among the GATech research team, as well as the research community at large to advance science and health. We will remove or code any personal information that could identify you before files are shared with other researchers to ensure that, by current scientific standards and known methods, no one will be able to identify you from the information we share. Despite these measures, we cannot guarantee the anonymity of your personal data.</p>

	                <h3>WILL I BE GIVEN ANY MONEY OR OTHER COMPENSATION FOR BEING IN THIS RESEARCH STUDY?</h3>
	                <p>If you agree to take part in this research study, we will provide compensation. You will be paid in accordance with the stated policies of Amazon Mechanical Turk and/or Prolific.com. Payment will be made upon completion and acceptance of tasks that you have agreed to complete and you will be paid via Mechanical Turk or Prolific.com. If you choose to withdraw from the study, you will not be compensated for your participation.</p>

	                <h3>WHAT ELSE DO I NEED TO KNOW?</h3>
	                <p>We might be using attention check questions in our surveys. If you miss 2 or more attention check questions, your HIT will not be accepted and you will not be compensated.</p>

	                <h3>WHO CAN I TALK TO IF I HAVE QUESTIONS?</h3>
	                <p>If you have any questions about the content of this research project, you may contact Dr. Cindy Xiong Bearfield at cxiong@gatech.edu, or contact Songwen Hu at shu343@gatech.edu. If you have any questions about your rights as a research subject, you may also contact Georgia Institute of Technology Office of Research Integrity Assurance at IRB@gatech.edu.</p>

	                <h3>WHAT HAPPENS IF I SAY YES, BUT I CHANGE MY MIND LATER?</h3>
	                <p>You can decide not to participate in this research or you can start and then decide to leave the research at any time and it will not be held against you. To do so, simply exit the experiment. Any data already collected will not be saved.</p>

	                <p><strong>By clicking ""I agree"" below you are indicating that you are at least 18 years old, currently in the U.S., have read this consent form, and agree to participate in this research study. Please print a copy of this page for your records.</strong></p>
	            </div>
	        </div>
	    ",,113564,,,,,,,4,html-button-response,,,,,,
,,,,,,,,,,,,,,,,,0.0-5.0,654a86d08714f739c9fcea21,,,,,,,,0,,,10484,,,,,"
	        <div class=""vis-literacy-intro"">
	            <h2>Visualization Assessment</h2>
	            <p>Before we begin the main study, we'd like to assess your ability to read and interpret data visualizations.</p>
	            
	            <div class=""assessment-info"">
	                <h3>What you'll do:</h3>
	                <ul>
	                    <li>View 12 different data visualizations (charts and graphs)</li>
	                    <li>Answer questions about what each visualization shows</li>
	                    <li>Take your time to examine each chart carefully</li>
	                </ul>
	                
	                <p><strong>This assessment will take approximately 5-10 minutes.</strong></p>
	                <p>There are no right or wrong interpretations - we're interested in how you read visualizations.</p>
	            </div>
	        </div>
	    ",,124050,,,,,,,5,html-button-response,,,,,,
,,,,,condition_1_baseline,Baseline,,,,,,,,,,,0.0-6.0,654a86d08714f739c9fcea21,92,,,,,,,,"[{""question_id"":""minivlat_1"",""question_type"":""treemap"",""question_text"":""eBay is nested in the Software category."",""response"":1,""correct_answer"":1,""is_correct"":true,""rt"":16559.20000000298},{""question_id"":""minivlat_2"",""question_type"":""stacked_100_bar"",""question_text"":""Which country has the lowest proportion of Gold medals?"",""response"":1,""correct_answer"":1,""is_correct"":true,""rt"":20580.199999999255},{""question_id"":""minivlat_3"",""question_type"":""histogram"",""question_text"":""What distance have customers traveled the most?"",""response"":1,""correct_answer"":1,""is_correct"":true,""rt"":27406.300000000745},{""question_id"":""minivlat_4"",""question_type"":""choropleth"",""question_text"":""In 2020, the unemployment rate for Washington (WA) was higher than that of Wisconsin (WI)."",""response"":0,""correct_answer"":0,""is_correct"":true,""rt"":31486.099999997765},{""question_id"":""minivlat_5"",""question_type"":""pie_chart"",""question_text"":""What is the approximate global smartphone market share of Samsung?"",""response"":4,""correct_answer"":0,""is_correct"":false,""rt"":28845.800000000745},{""question_id"":""minivlat_6"",""question_type"":""bubble_chart"",""question_text"":""Which has the largest number of metro stations?"",""response"":1,""correct_answer"":1,""is_correct"":true,""rt"":27967.699999999255},{""question_id"":""minivlat_7"",""question_type"":""stacked_bar"",""question_text"":""What is the cost of peanuts in Seoul?"",""response"":1,""correct_answer"":1,""is_correct"":true,""rt"":36180.900000002235},{""question_id"":""minivlat_8"",""question_type"":""line_chart"",""question_text"":""What was the price of a barrel of oil in February 2020?"",""response"":0,""correct_answer"":0,""is_correct"":true,""rt"":17280.699999999255},{""question_id"":""minivlat_9"",""question_type"":""bar_chart"",""question_text"":""What is the average internet speed in Japan?"",""response"":1,""correct_answer"":1,""is_correct"":true,""rt"":24705.300000000745},{""question_id"":""minivlat_10"",""question_type"":""area_chart"",""question_text"":""What was the average price of a pound of coffee in October 2019?"",""response"":0,""correct_answer"":0,""is_correct"":true,""rt"":35768.5},{""question_id"":""minivlat_11"",""question_type"":""stacked_area"",""question_text"":""What was the ratio of girls named \""Isla\"" to girls named \""Amelia\"" in 2012 in the UK?"",""response"":1,""correct_answer"":1,""is_correct"":true,""rt"":44962.699999999255},{""question_id"":""minivlat_12"",""question_type"":""scatter_plot"",""question_text"":""There is a negative relationship between the height and weight of the 85 males."",""response"":1,""correct_answer"":1,""is_correct"":true,""rt"":21113.89999999851}]",,,332857.30000000075,,,,,,456902,,,,12,11,,6,vis-literacy,,,,,,
,,,,,,,,,,,,,,,,,0.0-7.0,654a86d08714f739c9fcea21,,,,,,,,,,,11843,,,,,,,468745,,,,,,,7,instructions,,,,"[{""page_index"":0,""viewing_time"":11842}]",,
87,93,,,,condition_0_historical,Historical Only,Somewhat Certain,5,,historical_only,,,,,,"[{""type"":""chart_enter"",""data"":{""timestamp"":22629.70000000298},""timestamp"":22629.800000000745},{""type"":""chart_hover"",""data"":{""x"":1026,""y"":565,""timestamp"":22629.800000000745},""timestamp"":22629.800000000745},{""type"":""chart_hover"",""data"":{""x"":989,""y"":524,""timestamp"":22646.60000000149},""timestamp"":22646.60000000149},{""type"":""chart_hover"",""data"":{""x"":968,""y"":494,""timestamp"":22663.5},""timestamp"":22663.5},{""type"":""chart_hover"",""data"":{""x"":954,""y"":455,""timestamp"":22680},""timestamp"":22680},{""type"":""chart_hover"",""data"":{""x"":953,""y"":443,""timestamp"":22697.10000000149},""timestamp"":22697.10000000149},{""type"":""chart_hover"",""data"":{""x"":954,""y"":423,""timestamp"":22714},""timestamp"":22714},{""type"":""chart_hover"",""data"":{""x"":964,""y"":400,""timestamp"":22730.5},""timestamp"":22730.60000000149},{""type"":""chart_hover"",""data"":{""x"":973,""y"":386,""timestamp"":22747.300000000745},""timestamp"":22747.300000000745},{""type"":""chart_hover"",""data"":{""x"":985,""y"":373,""timestamp"":22763.900000002235},""timestamp"":22763.900000002235},{""type"":""chart_hover"",""data"":{""x"":996,""y"":362,""timestamp"":22780.60000000149},""timestamp"":22780.60000000149},{""type"":""chart_hover"",""data"":{""x"":1004,""y"":355,""timestamp"":22797.20000000298},""timestamp"":22797.300000000745},{""type"":""chart_hover"",""data"":{""x"":1015,""y"":347,""timestamp"":22814.5},""timestamp"":22814.5},{""type"":""chart_hover"",""data"":{""x"":1022,""y"":343,""timestamp"":22830.70000000298},""timestamp"":22830.70000000298},{""type"":""chart_hover"",""data"":{""x"":1030,""y"":340,""timestamp"":22847.300000000745},""timestamp"":22847.300000000745},{""type"":""chart_hover"",""data"":{""x"":1036,""y"":337,""timestamp"":22864.5},""timestamp"":22864.5},{""type"":""chart_hover"",""data"":{""x"":1043,""y"":334,""timestamp"":22881.300000000745},""timestamp"":22881.300000000745},{""type"":""chart_hover"",""data"":{""x"":1049,""y"":332,""timestamp"":22897.900000002235},""timestamp"":22897.900000002235},{""type"":""chart_hover"",""data"":{""x"":1058,""y"":328,""timestamp"":22914},""timestamp"":22914.10000000149},{""type"":""chart_hover"",""data"":{""x"":1068,""y"":323,""timestamp"":22931.20000000298},""timestamp"":22931.20000000298},{""type"":""chart_hover"",""data"":{""x"":1083,""y"":317,""timestamp"":22947.20000000298},""timestamp"":22947.20000000298},{""type"":""chart_hover"",""data"":{""x"":1093,""y"":312,""timestamp"":22964},""timestamp"":22964},{""type"":""chart_hover"",""data"":{""x"":1103,""y"":308,""timestamp"":22980.70000000298},""timestamp"":22980.70000000298},{""type"":""chart_hover"",""data"":{""x"":1113,""y"":302,""timestamp"":22997.400000002235},""timestamp"":22997.400000002235},{""type"":""chart_hover"",""data"":{""x"":1124,""y"":295,""timestamp"":23013.900000002235},""timestamp"":23013.900000002235},{""type"":""chart_hover"",""data"":{""x"":1134,""y"":290,""timestamp"":23030.800000000745},""timestamp"":23030.800000000745},{""type"":""chart_hover"",""data"":{""x"":1145,""y"":286,""timestamp"":23047.60000000149},""timestamp"":23047.60000000149},{""type"":""chart_hover"",""data"":{""x"":1147,""y"":285,""timestamp"":23064.20000000298},""timestamp"":23064.20000000298},{""type"":""chart_hover"",""data"":{""x"":1147,""y"":285,""timestamp"":23080.70000000298},""timestamp"":23080.70000000298},{""type"":""chart_hover"",""data"":{""x"":1147,""y"":284,""timestamp"":23097.5},""timestamp"":23097.60000000149},{""type"":""chart_hover"",""data"":{""x"":1148,""y"":284,""timestamp"":23211.20000000298},""timestamp"":23211.20000000298},{""type"":""chart_hover"",""data"":{""x"":1148,""y"":284,""timestamp"":23218.900000002235},""timestamp"":23218.900000002235},{""type"":""chart_hover"",""data"":{""x"":1149,""y"":284,""timestamp"":23231},""timestamp"":23231},{""type"":""chart_hover"",""data"":{""x"":1154,""y"":284,""timestamp"":23247.60000000149},""timestamp"":23247.60000000149},{""type"":""chart_hover"",""data"":{""x"":1159,""y"":283,""timestamp"":23264.400000002235},""timestamp"":23264.400000002235},{""type"":""chart_hover"",""data"":{""x"":1161,""y"":283,""timestamp"":23280.900000002235},""timestamp"":23280.900000002235},{""type"":""chart_hover"",""data"":{""x"":1164,""y"":283,""timestamp"":23297.800000000745},""timestamp"":23297.800000000745},{""type"":""chart_hover"",""data"":{""x"":1165,""y"":283,""timestamp"":23314.10000000149},""timestamp"":23314.10000000149},{""type"":""chart_hover"",""data"":{""x"":1166,""y"":283,""timestamp"":23331.10000000149},""timestamp"":23331.10000000149},{""type"":""chart_hover"",""data"":{""x"":1167,""y"":283,""timestamp"":23347.70000000298},""timestamp"":23347.70000000298},{""type"":""chart_hover"",""data"":{""x"":1168,""y"":283,""timestamp"":23364.5},""timestamp"":23364.5},{""type"":""chart_hover"",""data"":{""x"":1169,""y"":283,""timestamp"":23381},""timestamp"":23381},{""type"":""chart_hover"",""data"":{""x"":1172,""y"":283,""timestamp"":23397.900000002235},""timestamp"":23397.900000002235},{""type"":""chart_hover"",""data"":{""x"":1180,""y"":284,""timestamp"":23415.300000000745},""timestamp"":23415.300000000745},{""type"":""chart_hover"",""data"":{""x"":1187,""y"":284,""timestamp"":23431.20000000298},""timestamp"":23431.20000000298},{""type"":""chart_hover"",""data"":{""x"":1191,""y"":285,""timestamp"":23447.70000000298},""timestamp"":23447.70000000298},{""type"":""chart_hover"",""data"":{""x"":1193,""y"":285,""timestamp"":23464.5},""timestamp"":23464.5},{""type"":""chart_hover"",""data"":{""x"":1195,""y"":286,""timestamp"":23481},""timestamp"":23481},{""type"":""chart_hover"",""data"":{""x"":1195,""y"":286,""timestamp"":23497.900000002235},""timestamp"":23497.900000002235},{""type"":""chart_hover"",""data"":{""x"":1195,""y"":286,""timestamp"":23514.400000002235},""timestamp"":23514.400000002235},{""type"":""chart_hover"",""data"":{""x"":1195,""y"":285,""timestamp"":25019.20000000298},""timestamp"":25019.20000000298},{""type"":""chart_hover"",""data"":{""x"":1195,""y"":285,""timestamp"":25032.5},""timestamp"":25032.5},{""type"":""chart_hover"",""data"":{""x"":1198,""y"":283,""timestamp"":25049.10000000149},""timestamp"":25049.10000000149},{""type"":""chart_hover"",""data"":{""x"":1201,""y"":282,""timestamp"":25066},""timestamp"":25066},{""type"":""chart_hover"",""data"":{""x"":1208,""y"":280,""timestamp"":25082.300000000745},""timestamp"":25082.300000000745},{""type"":""chart_hover"",""data"":{""x"":1216,""y"":278,""timestamp"":25099.5},""timestamp"":25099.5},{""type"":""chart_hover"",""data"":{""x"":1227,""y"":275,""timestamp"":25115.800000000745},""timestamp"":25115.800000000745},{""type"":""chart_hover"",""data"":{""x"":1240,""y"":273,""timestamp"":25132.60000000149},""timestamp"":25132.60000000149},{""type"":""chart_hover"",""data"":{""x"":1252,""y"":272,""timestamp"":25149.10000000149},""timestamp"":25149.10000000149},{""type"":""chart_hover"",""data"":{""x"":1263,""y"":269,""timestamp"":25166.10000000149},""timestamp"":25166.10000000149},{""type"":""chart_hover"",""data"":{""x"":1271,""y"":268,""timestamp"":25182.400000002235},""timestamp"":25182.400000002235},{""type"":""chart_hover"",""data"":{""x"":1274,""y"":268,""timestamp"":25199.5},""timestamp"":25199.5},{""type"":""chart_hover"",""data"":{""x"":1275,""y"":267,""timestamp"":25216.400000002235},""timestamp"":25216.400000002235},{""type"":""chart_hover"",""data"":{""x"":1275,""y"":267,""timestamp"":26609.20000000298},""timestamp"":26609.20000000298},{""type"":""chart_hover"",""data"":{""x"":1277,""y"":267,""timestamp"":26633.800000000745},""timestamp"":26633.800000000745},{""type"":""chart_hover"",""data"":{""x"":1283,""y"":267,""timestamp"":26650.10000000149},""timestamp"":26650.10000000149},{""type"":""chart_hover"",""data"":{""x"":1295,""y"":268,""timestamp"":26667.10000000149},""timestamp"":26667.10000000149},{""type"":""chart_hover"",""data"":{""x"":1302,""y"":268,""timestamp"":26683.400000002235},""timestamp"":26683.400000002235},{""type"":""chart_hover"",""data"":{""x"":1307,""y"":268,""timestamp"":26700.800000000745},""timestamp"":26700.800000000745},{""type"":""chart_hover"",""data"":{""x"":1311,""y"":268,""timestamp"":26717.10000000149},""timestamp"":26717.10000000149},{""type"":""chart_hover"",""data"":{""x"":1312,""y"":268,""timestamp"":26734.10000000149},""timestamp"":26734.10000000149},{""type"":""chart_hover"",""data"":{""x"":1312,""y"":268,""timestamp"":26750.5},""timestamp"":26750.5},{""type"":""chart_hover"",""data"":{""x"":1313,""y"":268,""timestamp"":26767.400000002235},""timestamp"":26767.400000002235},{""type"":""chart_hover"",""data"":{""x"":1313,""y"":268,""timestamp"":26915.800000000745},""timestamp"":26915.800000000745},{""type"":""chart_hover"",""data"":{""x"":1313,""y"":268,""timestamp"":26922.5},""timestamp"":26922.5},{""type"":""chart_hover"",""data"":{""x"":1312,""y"":269,""timestamp"":26933.400000002235},""timestamp"":26933.400000002235},{""type"":""chart_hover"",""data"":{""x"":1312,""y"":270,""timestamp"":26950.60000000149},""timestamp"":26950.70000000298},{""type"":""chart_hover"",""data"":{""x"":1311,""y"":271,""timestamp"":26967.5},""timestamp"":26967.5},{""type"":""chart_hover"",""data"":{""x"":1310,""y"":273,""timestamp"":26984.800000000745},""timestamp"":26984.900000002235},{""type"":""chart_hover"",""data"":{""x"":1309,""y"":274,""timestamp"":27000.900000002235},""timestamp"":27000.900000002235},{""type"":""chart_hover"",""data"":{""x"":1308,""y"":276,""timestamp"":27017.300000000745},""timestamp"":27017.300000000745},{""type"":""chart_hover"",""data"":{""x"":1305,""y"":278,""timestamp"":27034.70000000298},""timestamp"":27034.70000000298},{""type"":""chart_hover"",""data"":{""x"":1305,""y"":278,""timestamp"":27050.60000000149},""timestamp"":27050.60000000149},{""type"":""chart_hover"",""data"":{""x"":1304,""y"":278,""timestamp"":27067.70000000298},""timestamp"":27067.70000000298},{""type"":""chart_hover"",""data"":{""x"":1304,""y"":278,""timestamp"":27084},""timestamp"":27084},{""type"":""chart_hover"",""data"":{""x"":1304,""y"":278,""timestamp"":27100.70000000298},""timestamp"":27100.70000000298},{""type"":""chart_hover"",""data"":{""x"":1304,""y"":278,""timestamp"":27117.300000000745},""timestamp"":27117.300000000745},{""type"":""chart_hover"",""data"":{""x"":1303,""y"":278,""timestamp"":27134.5},""timestamp"":27134.5},{""type"":""chart_hover"",""data"":{""x"":1303,""y"":277,""timestamp"":27150.900000002235},""timestamp"":27150.900000002235},{""type"":""chart_hover"",""data"":{""x"":1302,""y"":277,""timestamp"":27167.800000000745},""timestamp"":27167.800000000745},{""type"":""chart_hover"",""data"":{""x"":1301,""y"":276,""timestamp"":27184.10000000149},""timestamp"":27184.10000000149},{""type"":""chart_hover"",""data"":{""x"":1301,""y"":275,""timestamp"":27202},""timestamp"":27202},{""type"":""chart_hover"",""data"":{""x"":1300,""y"":273,""timestamp"":27216.900000002235},""timestamp"":27216.900000002235},{""type"":""chart_hover"",""data"":{""x"":1300,""y"":273,""timestamp"":27234.20000000298},""timestamp"":27234.20000000298},{""type"":""chart_hover"",""data"":{""x"":1299,""y"":272,""timestamp"":27251},""timestamp"":27251},{""type"":""chart_hover"",""data"":{""x"":1299,""y"":271,""timestamp"":27267.900000002235},""timestamp"":27267.900000002235},{""type"":""chart_hover"",""data"":{""x"":1299,""y"":270,""timestamp"":27284.10000000149},""timestamp"":27284.10000000149},{""type"":""chart_hover"",""data"":{""x"":1299,""y"":270,""timestamp"":27300.900000002235},""timestamp"":27300.900000002235},{""type"":""chart_hover"",""data"":{""x"":1299,""y"":270,""timestamp"":27317.5},""timestamp"":27317.5},{""type"":""chart_hover"",""data"":{""x"":1299,""y"":269,""timestamp"":27334.60000000149},""timestamp"":27334.70000000298},{""type"":""chart_hover"",""data"":{""x"":1299,""y"":269,""timestamp"":27350.900000002235},""timestamp"":27350.900000002235},{""type"":""chart_hover"",""data"":{""x"":1299,""y"":269,""timestamp"":27368},""timestamp"":27368},{""type"":""chart_hover"",""data"":{""x"":1299,""y"":269,""timestamp"":30906.60000000149},""timestamp"":30906.60000000149},{""type"":""chart_hover"",""data"":{""x"":1299,""y"":271,""timestamp"":30920.900000002235},""timestamp"":30920.900000002235},{""type"":""chart_hover"",""data"":{""x"":1296,""y"":286,""timestamp"":30937.5},""timestamp"":30937.5},{""type"":""chart_hover"",""data"":{""x"":1294,""y"":298,""timestamp"":30954},""timestamp"":30954},{""type"":""chart_hover"",""data"":{""x"":1292,""y"":314,""timestamp"":30970.900000002235},""timestamp"":30970.900000002235},{""type"":""chart_hover"",""data"":{""x"":1289,""y"":334,""timestamp"":30987.300000000745},""timestamp"":30987.300000000745},{""type"":""chart_hover"",""data"":{""x"":1280,""y"":381,""timestamp"":31004},""timestamp"":31004},{""type"":""chart_hover"",""data"":{""x"":1273,""y"":419,""timestamp"":31020.70000000298},""timestamp"":31020.70000000298},{""type"":""chart_hover"",""data"":{""x"":1267,""y"":450,""timestamp"":31037.5},""timestamp"":31037.5},{""type"":""chart_hover"",""data"":{""x"":1263,""y"":468,""timestamp"":31054.10000000149},""timestamp"":31054.10000000149},{""type"":""chart_hover"",""data"":{""x"":1256,""y"":506,""timestamp"":31071.10000000149},""timestamp"":31071.10000000149},{""type"":""chart_hover"",""data"":{""x"":1250,""y"":546,""timestamp"":31087.300000000745},""timestamp"":31087.300000000745},{""type"":""chart_hover"",""data"":{""x"":1249,""y"":563,""timestamp"":31104.10000000149},""timestamp"":31104.10000000149},{""type"":""chart_hover"",""data"":{""x"":1248,""y"":573,""timestamp"":31120.70000000298},""timestamp"":31120.70000000298},{""type"":""chart_hover"",""data"":{""x"":1248,""y"":578,""timestamp"":31137.60000000149},""timestamp"":31137.60000000149},{""type"":""chart_hover"",""data"":{""x"":1248,""y"":585,""timestamp"":31154.10000000149},""timestamp"":31154.10000000149},{""type"":""chart_hover"",""data"":{""x"":1248,""y"":588,""timestamp"":31170.800000000745},""timestamp"":31170.800000000745},{""type"":""chart_hover"",""data"":{""x"":1248,""y"":593,""timestamp"":31188.300000000745},""timestamp"":31188.300000000745},{""type"":""chart_leave"",""data"":{""timestamp"":31204.400000002235},""timestamp"":31204.400000002235},{""type"":""chart_enter"",""data"":{""timestamp"":47368.10000000149},""timestamp"":47368.10000000149},{""type"":""chart_hover"",""data"":{""x"":1448,""y"":593,""timestamp"":47368.20000000298},""timestamp"":47368.20000000298},{""type"":""chart_hover"",""data"":{""x"":1430,""y"":563,""timestamp"":47384.70000000298},""timestamp"":47384.70000000298},{""type"":""chart_hover"",""data"":{""x"":1409,""y"":535,""timestamp"":47401.20000000298},""timestamp"":47401.20000000298},{""type"":""chart_hover"",""data"":{""x"":1389,""y"":511,""timestamp"":47418},""timestamp"":47418},{""type"":""chart_hover"",""data"":{""x"":1378,""y"":498,""timestamp"":47434.70000000298},""timestamp"":47434.70000000298},{""type"":""chart_hover"",""data"":{""x"":1354,""y"":462,""timestamp"":47451.300000000745},""timestamp"":47451.300000000745},{""type"":""chart_hover"",""data"":{""x"":1347,""y"":444,""timestamp"":47468.300000000745},""timestamp"":47468.400000002235},{""type"":""chart_hover"",""data"":{""x"":1345,""y"":428,""timestamp"":47485},""timestamp"":47485},{""type"":""chart_hover"",""data"":{""x"":1346,""y"":415,""timestamp"":47501.60000000149},""timestamp"":47501.60000000149},{""type"":""chart_hover"",""data"":{""x"":1351,""y"":398,""timestamp"":47518.20000000298},""timestamp"":47518.20000000298},{""type"":""chart_hover"",""data"":{""x"":1353,""y"":392,""timestamp"":47534.900000002235},""timestamp"":47534.900000002235},{""type"":""chart_hover"",""data"":{""x"":1353,""y"":390,""timestamp"":47551.60000000149},""timestamp"":47551.60000000149},{""type"":""chart_hover"",""data"":{""x"":1353,""y"":390,""timestamp"":47568.300000000745},""timestamp"":47568.300000000745},{""type"":""chart_hover"",""data"":{""x"":1353,""y"":390,""timestamp"":47601.70000000298},""timestamp"":47601.70000000298},{""type"":""chart_hover"",""data"":{""x"":1353,""y"":389,""timestamp"":47652.20000000298},""timestamp"":47652.20000000298},{""type"":""chart_hover"",""data"":{""x"":1352,""y"":383,""timestamp"":47668.5},""timestamp"":47668.5},{""type"":""chart_hover"",""data"":{""x"":1350,""y"":377,""timestamp"":47684.800000000745},""timestamp"":47684.800000000745},{""type"":""chart_hover"",""data"":{""x"":1348,""y"":369,""timestamp"":47701.800000000745},""timestamp"":47701.800000000745},{""type"":""chart_hover"",""data"":{""x"":1345,""y"":361,""timestamp"":47718.300000000745},""timestamp"":47718.300000000745},{""type"":""chart_hover"",""data"":{""x"":1337,""y"":345,""timestamp"":47735.10000000149},""timestamp"":47735.10000000149},{""type"":""chart_hover"",""data"":{""x"":1329,""y"":334,""timestamp"":47751.60000000149},""timestamp"":47751.60000000149},{""type"":""chart_hover"",""data"":{""x"":1321,""y"":323,""timestamp"":47768.5},""timestamp"":47768.5},{""type"":""chart_hover"",""data"":{""x"":1315,""y"":312,""timestamp"":47785.20000000298},""timestamp"":47785.20000000298},{""type"":""chart_hover"",""data"":{""x"":1311,""y"":306,""timestamp"":47802},""timestamp"":47802},{""type"":""chart_hover"",""data"":{""x"":1305,""y"":289,""timestamp"":47818.5},""timestamp"":47818.5},{""type"":""chart_hover"",""data"":{""x"":1300,""y"":278,""timestamp"":47835.300000000745},""timestamp"":47835.300000000745},{""type"":""chart_hover"",""data"":{""x"":1299,""y"":268,""timestamp"":47851.70000000298},""timestamp"":47851.800000000745},{""type"":""chart_hover"",""data"":{""x"":1298,""y"":263,""timestamp"":47868.60000000149},""timestamp"":47868.60000000149},{""type"":""chart_hover"",""data"":{""x"":1298,""y"":260,""timestamp"":47885},""timestamp"":47885},{""type"":""chart_hover"",""data"":{""x"":1298,""y"":259,""timestamp"":47902.5},""timestamp"":47902.5},{""type"":""chart_hover"",""data"":{""x"":1298,""y"":259,""timestamp"":47954.5},""timestamp"":47954.5},{""type"":""chart_hover"",""data"":{""x"":1298,""y"":259,""timestamp"":47968.70000000298},""timestamp"":47968.70000000298},{""type"":""chart_hover"",""data"":{""x"":1298,""y"":261,""timestamp"":47985.20000000298},""timestamp"":47985.20000000298},{""type"":""chart_hover"",""data"":{""x"":1298,""y"":264,""timestamp"":48002.10000000149},""timestamp"":48002.10000000149},{""type"":""chart_hover"",""data"":{""x"":1298,""y"":265,""timestamp"":48018.60000000149},""timestamp"":48018.60000000149},{""type"":""chart_hover"",""data"":{""x"":1298,""y"":266,""timestamp"":48035.5},""timestamp"":48035.5},{""type"":""chart_hover"",""data"":{""x"":1298,""y"":267,""timestamp"":48052},""timestamp"":48052},{""type"":""chart_hover"",""data"":{""x"":1298,""y"":267,""timestamp"":48075.20000000298},""timestamp"":48075.20000000298},{""type"":""chart_hover"",""data"":{""x"":1298,""y"":268,""timestamp"":48118.60000000149},""timestamp"":48118.60000000149},{""type"":""chart_hover"",""data"":{""x"":1298,""y"":269,""timestamp"":48135.60000000149},""timestamp"":48135.60000000149},{""type"":""chart_hover"",""data"":{""x"":1298,""y"":270,""timestamp"":48152.20000000298},""timestamp"":48152.20000000298},{""type"":""chart_hover"",""data"":{""x"":1298,""y"":271,""timestamp"":48169},""timestamp"":48169},{""type"":""chart_hover"",""data"":{""x"":1298,""y"":273,""timestamp"":48185.5},""timestamp"":48185.5},{""type"":""chart_hover"",""data"":{""x"":1298,""y"":274,""timestamp"":48202.300000000745},""timestamp"":48202.300000000745},{""type"":""chart_hover"",""data"":{""x"":1298,""y"":275,""timestamp"":48218.800000000745},""timestamp"":48218.800000000745},{""type"":""chart_hover"",""data"":{""x"":1298,""y"":275,""timestamp"":48235.400000002235},""timestamp"":48235.400000002235},{""type"":""chart_hover"",""data"":{""x"":1298,""y"":276,""timestamp"":48252},""timestamp"":48252},{""type"":""chart_hover"",""data"":{""x"":1298,""y"":276,""timestamp"":48268.900000002235},""timestamp"":48268.900000002235},{""type"":""chart_hover"",""data"":{""x"":1298,""y"":276,""timestamp"":48689.5},""timestamp"":48689.5},{""type"":""chart_hover"",""data"":{""x"":1299,""y"":276,""timestamp"":48702.60000000149},""timestamp"":48702.60000000149},{""type"":""chart_hover"",""data"":{""x"":1299,""y"":276,""timestamp"":48719.20000000298},""timestamp"":48719.20000000298},{""type"":""chart_hover"",""data"":{""x"":1299,""y"":276,""timestamp"":48735.900000002235},""timestamp"":48735.900000002235},{""type"":""chart_hover"",""data"":{""x"":1299,""y"":276,""timestamp"":48794.10000000149},""timestamp"":48794.10000000149},{""type"":""chart_hover"",""data"":{""x"":1300,""y"":276,""timestamp"":48802.900000002235},""timestamp"":48802.900000002235},{""type"":""chart_hover"",""data"":{""x"":1300,""y"":276,""timestamp"":48819.20000000298},""timestamp"":48819.20000000298},{""type"":""chart_hover"",""data"":{""x"":1300,""y"":276,""timestamp"":48836.10000000149},""timestamp"":48836.10000000149},{""type"":""chart_hover"",""data"":{""x"":1301,""y"":276,""timestamp"":48852.70000000298},""timestamp"":48852.70000000298},{""type"":""chart_hover"",""data"":{""x"":1302,""y"":276,""timestamp"":48869.800000000745},""timestamp"":48869.800000000745},{""type"":""chart_hover"",""data"":{""x"":1304,""y"":276,""timestamp"":48886},""timestamp"":48886},{""type"":""chart_hover"",""data"":{""x"":1304,""y"":276,""timestamp"":48902.800000000745},""timestamp"":48902.800000000745},{""type"":""chart_hover"",""data"":{""x"":1305,""y"":276,""timestamp"":48919.300000000745},""timestamp"":48919.300000000745},{""type"":""chart_hover"",""data"":{""x"":1305,""y"":276,""timestamp"":48936.300000000745},""timestamp"":48936.300000000745},{""type"":""chart_hover"",""data"":{""x"":1306,""y"":276,""timestamp"":48952.900000002235},""timestamp"":48952.900000002235},{""type"":""chart_hover"",""data"":{""x"":1306,""y"":276,""timestamp"":48969.70000000298},""timestamp"":48969.70000000298},{""type"":""chart_hover"",""data"":{""x"":1307,""y"":276,""timestamp"":48986},""timestamp"":48986},{""type"":""chart_hover"",""data"":{""x"":1307,""y"":276,""timestamp"":49003.60000000149},""timestamp"":49003.60000000149},{""type"":""chart_hover"",""data"":{""x"":1307,""y"":276,""timestamp"":49019.400000002235},""timestamp"":49019.400000002235},{""type"":""chart_hover"",""data"":{""x"":1308,""y"":276,""timestamp"":49036.20000000298},""timestamp"":49036.20000000298},{""type"":""chart_hover"",""data"":{""x"":1309,""y"":276,""timestamp"":49052.800000000745},""timestamp"":49052.800000000745},{""type"":""chart_hover"",""data"":{""x"":1309,""y"":276,""timestamp"":49073.20000000298},""timestamp"":49073.20000000298},{""type"":""chart_hover"",""data"":{""x"":1309,""y"":276,""timestamp"":49237.70000000298},""timestamp"":49237.70000000298},{""type"":""chart_hover"",""data"":{""x"":1309,""y"":276,""timestamp"":49252.900000002235},""timestamp"":49252.900000002235},{""type"":""chart_hover"",""data"":{""x"":1309,""y"":276,""timestamp"":49269.70000000298},""timestamp"":49269.70000000298},{""type"":""chart_hover"",""data"":{""x"":1308,""y"":276,""timestamp"":49295.70000000298},""timestamp"":49295.70000000298},{""type"":""chart_hover"",""data"":{""x"":1308,""y"":276,""timestamp"":49311.400000002235},""timestamp"":49311.400000002235},{""type"":""chart_hover"",""data"":{""x"":1308,""y"":276,""timestamp"":49320.400000002235},""timestamp"":49320.400000002235},{""type"":""chart_hover"",""data"":{""x"":1307,""y"":276,""timestamp"":49336.300000000745},""timestamp"":49336.300000000745},{""type"":""chart_hover"",""data"":{""x"":1306,""y"":275,""timestamp"":49352.900000002235},""timestamp"":49352.900000002235},{""type"":""chart_hover"",""data"":{""x"":1302,""y"":274,""timestamp"":49370},""timestamp"":49370},{""type"":""chart_hover"",""data"":{""x"":1301,""y"":274,""timestamp"":49386.5},""timestamp"":49386.5},{""type"":""chart_hover"",""data"":{""x"":1301,""y"":274,""timestamp"":49403.300000000745},""timestamp"":49403.300000000745},{""type"":""chart_hover"",""data"":{""x"":1301,""y"":274,""timestamp"":49419.70000000298},""timestamp"":49419.70000000298},{""type"":""chart_hover"",""data"":{""x"":1301,""y"":274,""timestamp"":56421.900000002235},""timestamp"":56421.900000002235},{""type"":""chart_hover"",""data"":{""x"":1301,""y"":274,""timestamp"":56442.5},""timestamp"":56442.5},{""type"":""chart_hover"",""data"":{""x"":1302,""y"":273,""timestamp"":56459.20000000298},""timestamp"":56459.20000000298},{""type"":""chart_hover"",""data"":{""x"":1302,""y"":273,""timestamp"":56475.60000000149},""timestamp"":56475.60000000149},{""type"":""chart_hover"",""data"":{""x"":1302,""y"":273,""timestamp"":56782},""timestamp"":56782},{""type"":""chart_hover"",""data"":{""x"":1302,""y"":273,""timestamp"":56792.70000000298},""timestamp"":56792.70000000298},{""type"":""chart_hover"",""data"":{""x"":1303,""y"":272,""timestamp"":56809.10000000149},""timestamp"":56809.10000000149},{""type"":""chart_hover"",""data"":{""x"":1303,""y"":272,""timestamp"":56825.900000002235},""timestamp"":56825.900000002235},{""type"":""chart_hover"",""data"":{""x"":1303,""y"":272,""timestamp"":56842.60000000149},""timestamp"":56842.60000000149},{""type"":""chart_hover"",""data"":{""x"":1303,""y"":272,""timestamp"":56859.10000000149},""timestamp"":56859.10000000149},{""type"":""chart_hover"",""data"":{""x"":1303,""y"":272,""timestamp"":56875.900000002235},""timestamp"":56875.900000002235},{""type"":""chart_hover"",""data"":{""x"":1304,""y"":272,""timestamp"":56892.800000000745},""timestamp"":56892.800000000745},{""type"":""chart_hover"",""data"":{""x"":1304,""y"":271,""timestamp"":56909},""timestamp"":56909},{""type"":""chart_hover"",""data"":{""x"":1304,""y"":271,""timestamp"":56925.800000000745},""timestamp"":56925.800000000745},{""type"":""chart_hover"",""data"":{""x"":1304,""y"":271,""timestamp"":56942.70000000298},""timestamp"":56942.70000000298},{""type"":""chart_hover"",""data"":{""x"":1305,""y"":270,""timestamp"":56959.400000002235},""timestamp"":56959.400000002235},{""type"":""chart_hover"",""data"":{""x"":1305,""y"":270,""timestamp"":56985.300000000745},""timestamp"":56985.300000000745},{""type"":""chart_hover"",""data"":{""x"":1305,""y"":270,""timestamp"":57001.20000000298},""timestamp"":57001.20000000298},{""type"":""chart_hover"",""data"":{""x"":1305,""y"":270,""timestamp"":59639.800000000745},""timestamp"":59639.900000002235},{""type"":""chart_hover"",""data"":{""x"":1295,""y"":275,""timestamp"":59661.5},""timestamp"":59661.5},{""type"":""chart_hover"",""data"":{""x"":1277,""y"":281,""timestamp"":59678.60000000149},""timestamp"":59678.60000000149},{""type"":""chart_hover"",""data"":{""x"":1253,""y"":286,""timestamp"":59695.10000000149},""timestamp"":59695.10000000149},{""type"":""chart_hover"",""data"":{""x"":1229,""y"":290,""timestamp"":59711.60000000149},""timestamp"":59711.60000000149},{""type"":""chart_hover"",""data"":{""x"":1217,""y"":291,""timestamp"":59728.5},""timestamp"":59728.5},{""type"":""chart_hover"",""data"":{""x"":1184,""y"":293,""timestamp"":59745},""timestamp"":59745},{""type"":""chart_hover"",""data"":{""x"":1163,""y"":295,""timestamp"":59761.800000000745},""timestamp"":59761.800000000745},{""type"":""chart_hover"",""data"":{""x"":1143,""y"":296,""timestamp"":59779.20000000298},""timestamp"":59779.20000000298},{""type"":""chart_hover"",""data"":{""x"":1124,""y"":298,""timestamp"":59795.20000000298},""timestamp"":59795.20000000298},{""type"":""chart_hover"",""data"":{""x"":1103,""y"":300,""timestamp"":59811.900000002235},""timestamp"":59811.900000002235},{""type"":""chart_hover"",""data"":{""x"":1092,""y"":301,""timestamp"":59828.5},""timestamp"":59828.5},{""type"":""chart_hover"",""data"":{""x"":1085,""y"":301,""timestamp"":59845},""timestamp"":59845},{""type"":""chart_hover"",""data"":{""x"":1079,""y"":301,""timestamp"":59862.10000000149},""timestamp"":59862.10000000149},{""type"":""chart_hover"",""data"":{""x"":1076,""y"":301,""timestamp"":59878.70000000298},""timestamp"":59878.70000000298},{""type"":""chart_hover"",""data"":{""x"":1072,""y"":302,""timestamp"":59895.300000000745},""timestamp"":59895.300000000745},{""type"":""chart_hover"",""data"":{""x"":1070,""y"":302,""timestamp"":59911.70000000298},""timestamp"":59911.70000000298},{""type"":""chart_hover"",""data"":{""x"":1065,""y"":301,""timestamp"":59928.60000000149},""timestamp"":59928.60000000149},{""type"":""chart_hover"",""data"":{""x"":1060,""y"":300,""timestamp"":59945.20000000298},""timestamp"":59945.20000000298},{""type"":""chart_hover"",""data"":{""x"":1054,""y"":298,""timestamp"":59962.10000000149},""timestamp"":59962.10000000149},{""type"":""chart_hover"",""data"":{""x"":1049,""y"":297,""timestamp"":59978.60000000149},""timestamp"":59978.60000000149},{""type"":""chart_hover"",""data"":{""x"":1048,""y"":297,""timestamp"":59995.400000002235},""timestamp"":59995.400000002235},{""type"":""chart_hover"",""data"":{""x"":1047,""y"":297,""timestamp"":60012},""timestamp"":60012},{""type"":""chart_hover"",""data"":{""x"":1047,""y"":297,""timestamp"":60031.10000000149},""timestamp"":60031.10000000149},{""type"":""chart_hover"",""data"":{""x"":1047,""y"":297,""timestamp"":60546.70000000298},""timestamp"":60546.70000000298},{""type"":""chart_hover"",""data"":{""x"":1047,""y"":296,""timestamp"":60563.400000002235},""timestamp"":60563.5},{""type"":""chart_hover"",""data"":{""x"":1048,""y"":291,""timestamp"":60579},""timestamp"":60579},{""type"":""chart_hover"",""data"":{""x"":1049,""y"":285,""timestamp"":60595.900000002235},""timestamp"":60595.900000002235},{""type"":""chart_hover"",""data"":{""x"":1049,""y"":280,""timestamp"":60612.60000000149},""timestamp"":60612.60000000149},{""type"":""chart_hover"",""data"":{""x"":1049,""y"":276,""timestamp"":60629.10000000149},""timestamp"":60629.10000000149},{""type"":""chart_hover"",""data"":{""x"":1049,""y"":272,""timestamp"":60645.70000000298},""timestamp"":60645.70000000298},{""type"":""chart_hover"",""data"":{""x"":1049,""y"":272,""timestamp"":60662.60000000149},""timestamp"":60662.60000000149},{""type"":""chart_hover"",""data"":{""x"":1049,""y"":271,""timestamp"":60679},""timestamp"":60679},{""type"":""chart_hover"",""data"":{""x"":1049,""y"":271,""timestamp"":60695.800000000745},""timestamp"":60695.800000000745},{""type"":""chart_hover"",""data"":{""x"":1049,""y"":271,""timestamp"":60793.300000000745},""timestamp"":60793.300000000745},{""type"":""chart_hover"",""data"":{""x"":1049,""y"":271,""timestamp"":60800.800000000745},""timestamp"":60800.800000000745},{""type"":""chart_hover"",""data"":{""x"":1049,""y"":271,""timestamp"":60812.400000002235},""timestamp"":60812.400000002235},{""type"":""chart_hover"",""data"":{""x"":1049,""y"":272,""timestamp"":60830.20000000298},""timestamp"":60830.20000000298},{""type"":""chart_hover"",""data"":{""x"":1049,""y"":272,""timestamp"":60845.900000002235},""timestamp"":60845.900000002235},{""type"":""chart_hover"",""data"":{""x"":1049,""y"":273,""timestamp"":60981.70000000298},""timestamp"":60981.70000000298},{""type"":""chart_hover"",""data"":{""x"":1049,""y"":273,""timestamp"":60997.60000000149},""timestamp"":60997.60000000149},{""type"":""chart_hover"",""data"":{""x"":1049,""y"":273,""timestamp"":61013.400000002235},""timestamp"":61013.400000002235},{""type"":""chart_hover"",""data"":{""x"":1049,""y"":273,""timestamp"":61029.5},""timestamp"":61029.5},{""type"":""chart_hover"",""data"":{""x"":1049,""y"":273,""timestamp"":61046},""timestamp"":61046},{""type"":""chart_hover"",""data"":{""x"":1048,""y"":273,""timestamp"":61062.70000000298},""timestamp"":61062.70000000298},{""type"":""chart_hover"",""data"":{""x"":1048,""y"":273,""timestamp"":61080.10000000149},""timestamp"":61080.10000000149},{""type"":""chart_hover"",""data"":{""x"":1048,""y"":274,""timestamp"":61096.10000000149},""timestamp"":61096.10000000149},{""type"":""chart_hover"",""data"":{""x"":1048,""y"":273,""timestamp"":61236.900000002235},""timestamp"":61236.900000002235},{""type"":""chart_hover"",""data"":{""x"":1050,""y"":273,""timestamp"":61247},""timestamp"":61247},{""type"":""chart_hover"",""data"":{""x"":1058,""y"":273,""timestamp"":61262.300000000745},""timestamp"":61262.300000000745},{""type"":""chart_hover"",""data"":{""x"":1071,""y"":271,""timestamp"":61279.5},""timestamp"":61279.5},{""type"":""chart_hover"",""data"":{""x"":1088,""y"":271,""timestamp"":61296.5},""timestamp"":61296.5},{""type"":""chart_hover"",""data"":{""x"":1121,""y"":270,""timestamp"":61313},""timestamp"":61313},{""type"":""chart_hover"",""data"":{""x"":1151,""y"":270,""timestamp"":61329.800000000745},""timestamp"":61329.800000000745},{""type"":""chart_hover"",""data"":{""x"":1184,""y"":270,""timestamp"":61346.300000000745},""timestamp"":61346.300000000745},{""type"":""chart_hover"",""data"":{""x"":1216,""y"":270,""timestamp"":61363.20000000298},""timestamp"":61363.20000000298},{""type"":""chart_hover"",""data"":{""x"":1254,""y"":270,""timestamp"":61379.60000000149},""timestamp"":61379.60000000149},{""type"":""chart_hover"",""data"":{""x"":1271,""y"":268,""timestamp"":61396.400000002235},""timestamp"":61396.400000002235},{""type"":""chart_hover"",""data"":{""x"":1284,""y"":266,""timestamp"":61413.20000000298},""timestamp"":61413.20000000298},{""type"":""chart_hover"",""data"":{""x"":1289,""y"":265,""timestamp"":61429.900000002235},""timestamp"":61429.900000002235},{""type"":""chart_hover"",""data"":{""x"":1298,""y"":264,""timestamp"":61446.20000000298},""timestamp"":61446.20000000298},{""type"":""chart_hover"",""data"":{""x"":1308,""y"":263,""timestamp"":61463.900000002235},""timestamp"":61463.900000002235},{""type"":""chart_hover"",""data"":{""x"":1313,""y"":263,""timestamp"":61479.5},""timestamp"":61479.5},{""type"":""chart_hover"",""data"":{""x"":1316,""y"":263,""timestamp"":61496.70000000298},""timestamp"":61496.70000000298},{""type"":""chart_hover"",""data"":{""x"":1318,""y"":263,""timestamp"":61513.20000000298},""timestamp"":61513.20000000298},{""type"":""chart_hover"",""data"":{""x"":1318,""y"":263,""timestamp"":61530},""timestamp"":61530},{""type"":""chart_hover"",""data"":{""x"":1318,""y"":264,""timestamp"":61741.20000000298},""timestamp"":61741.20000000298},{""type"":""chart_hover"",""data"":{""x"":1318,""y"":264,""timestamp"":61747.300000000745},""timestamp"":61747.300000000745},{""type"":""chart_hover"",""data"":{""x"":1317,""y"":265,""timestamp"":61763.400000002235},""timestamp"":61763.400000002235},{""type"":""chart_hover"",""data"":{""x"":1311,""y"":271,""timestamp"":61779.900000002235},""timestamp"":61779.900000002235},{""type"":""chart_hover"",""data"":{""x"":1308,""y"":273,""timestamp"":61797},""timestamp"":61797},{""type"":""chart_hover"",""data"":{""x"":1308,""y"":274,""timestamp"":61813.300000000745},""timestamp"":61813.300000000745},{""type"":""chart_hover"",""data"":{""x"":1306,""y"":275,""timestamp"":61830.20000000298},""timestamp"":61830.20000000298},{""type"":""chart_hover"",""data"":{""x"":1306,""y"":275,""timestamp"":61846.70000000298},""timestamp"":61846.70000000298},{""type"":""chart_hover"",""data"":{""x"":1306,""y"":275,""timestamp"":61867.300000000745},""timestamp"":61867.300000000745},{""type"":""chart_hover"",""data"":{""x"":1305,""y"":275,""timestamp"":61882},""timestamp"":61882},{""type"":""chart_hover"",""data"":{""x"":1305,""y"":275,""timestamp"":61899.20000000298},""timestamp"":61899.300000000745},{""type"":""chart_hover"",""data"":{""x"":1305,""y"":275,""timestamp"":61913.300000000745},""timestamp"":61913.300000000745},{""type"":""chart_hover"",""data"":{""x"":1305,""y"":275,""timestamp"":61931.10000000149},""timestamp"":61931.10000000149},{""type"":""chart_hover"",""data"":{""x"":1304,""y"":275,""timestamp"":61946.800000000745},""timestamp"":61946.800000000745},{""type"":""chart_hover"",""data"":{""x"":1304,""y"":275,""timestamp"":61963.60000000149},""timestamp"":61963.60000000149},{""type"":""chart_hover"",""data"":{""x"":1304,""y"":275,""timestamp"":61980},""timestamp"":61980.10000000149},{""type"":""chart_hover"",""data"":{""x"":1304,""y"":275,""timestamp"":61996.800000000745},""timestamp"":61996.800000000745},{""type"":""chart_hover"",""data"":{""x"":1303,""y"":275,""timestamp"":62013.300000000745},""timestamp"":62013.300000000745},{""type"":""chart_hover"",""data"":{""x"":1303,""y"":275,""timestamp"":62235.300000000745},""timestamp"":62235.300000000745},{""type"":""chart_hover"",""data"":{""x"":1303,""y"":275,""timestamp"":62249.5},""timestamp"":62249.5},{""type"":""chart_hover"",""data"":{""x"":1303,""y"":274,""timestamp"":62263.800000000745},""timestamp"":62263.800000000745},{""type"":""chart_hover"",""data"":{""x"":1304,""y"":274,""timestamp"":62280.300000000745},""timestamp"":62280.300000000745},{""type"":""chart_hover"",""data"":{""x"":1304,""y"":273,""timestamp"":62298.300000000745},""timestamp"":62298.300000000745},{""type"":""chart_hover"",""data"":{""x"":1304,""y"":272,""timestamp"":62312.900000002235},""timestamp"":62312.900000002235},{""type"":""chart_hover"",""data"":{""x"":1304,""y"":272,""timestamp"":62330.800000000745},""timestamp"":62330.800000000745},{""type"":""chart_hover"",""data"":{""x"":1304,""y"":271,""timestamp"":62347.20000000298},""timestamp"":62347.20000000298},{""type"":""chart_hover"",""data"":{""x"":1304,""y"":271,""timestamp"":62363.900000002235},""timestamp"":62363.900000002235},{""type"":""chart_hover"",""data"":{""x"":1304,""y"":271,""timestamp"":62381.300000000745},""timestamp"":62381.300000000745},{""type"":""chart_hover"",""data"":{""x"":1304,""y"":270,""timestamp"":62396.900000002235},""timestamp"":62396.900000002235},{""type"":""chart_hover"",""data"":{""x"":1304,""y"":271,""timestamp"":62752.60000000149},""timestamp"":62752.60000000149},{""type"":""chart_hover"",""data"":{""x"":1303,""y"":271,""timestamp"":62764.10000000149},""timestamp"":62764.10000000149},{""type"":""chart_hover"",""data"":{""x"":1302,""y"":273,""timestamp"":62780.900000002235},""timestamp"":62780.900000002235},{""type"":""chart_hover"",""data"":{""x"":1297,""y"":278,""timestamp"":62797.70000000298},""timestamp"":62797.70000000298},{""type"":""chart_hover"",""data"":{""x"":1292,""y"":285,""timestamp"":62814},""timestamp"":62814},{""type"":""chart_hover"",""data"":{""x"":1283,""y"":296,""timestamp"":62831},""timestamp"":62831},{""type"":""chart_hover"",""data"":{""x"":1271,""y"":313,""timestamp"":62847.5},""timestamp"":62847.5},{""type"":""chart_hover"",""data"":{""x"":1255,""y"":333,""timestamp"":62864.300000000745},""timestamp"":62864.300000000745},{""type"":""chart_hover"",""data"":{""x"":1226,""y"":373,""timestamp"":62880.900000002235},""timestamp"":62880.900000002235},{""type"":""chart_hover"",""data"":{""x"":1209,""y"":404,""timestamp"":62897.70000000298},""timestamp"":62897.70000000298},{""type"":""chart_hover"",""data"":{""x"":1202,""y"":422,""timestamp"":62914.20000000298},""timestamp"":62914.20000000298},{""type"":""chart_hover"",""data"":{""x"":1191,""y"":456,""timestamp"":62931},""timestamp"":62931},{""type"":""chart_hover"",""data"":{""x"":1181,""y"":501,""timestamp"":62947.60000000149},""timestamp"":62947.60000000149},{""type"":""chart_hover"",""data"":{""x"":1179,""y"":529,""timestamp"":62964.300000000745},""timestamp"":62964.300000000745},{""type"":""chart_hover"",""data"":{""x"":1177,""y"":557,""timestamp"":62980.800000000745},""timestamp"":62980.800000000745},{""type"":""chart_hover"",""data"":{""x"":1176,""y"":585,""timestamp"":62997.70000000298},""timestamp"":62997.70000000298},{""type"":""chart_leave"",""data"":{""timestamp"":63014.400000002235},""timestamp"":63014.400000002235},{""type"":""chart_enter"",""data"":{""timestamp"":71505.70000000298},""timestamp"":71505.70000000298},{""type"":""chart_hover"",""data"":{""x"":1112,""y"":536,""timestamp"":71505.70000000298},""timestamp"":71505.70000000298},{""type"":""chart_hover"",""data"":{""x"":1110,""y"":494,""timestamp"":71522},""timestamp"":71522},{""type"":""chart_hover"",""data"":{""x"":1109,""y"":472,""timestamp"":71538.60000000149},""timestamp"":71538.60000000149},{""type"":""chart_hover"",""data"":{""x"":1108,""y"":453,""timestamp"":71555.30000000075},""timestamp"":71555.30000000075},{""type"":""chart_hover"",""data"":{""x"":1105,""y"":429,""timestamp"":71571.90000000224},""timestamp"":71571.90000000224},{""type"":""chart_hover"",""data"":{""x"":1101,""y"":420,""timestamp"":71587.40000000224},""timestamp"":71587.40000000224},{""type"":""chart_hover"",""data"":{""x"":1098,""y"":416,""timestamp"":71604.40000000224},""timestamp"":71604.40000000224},{""type"":""chart_hover"",""data"":{""x"":1096,""y"":414,""timestamp"":71622},""timestamp"":71622.10000000149},{""type"":""chart_hover"",""data"":{""x"":1095,""y"":413,""timestamp"":71639.10000000149},""timestamp"":71639.10000000149},{""type"":""chart_hover"",""data"":{""x"":1094,""y"":411,""timestamp"":71655.60000000149},""timestamp"":71655.60000000149},{""type"":""chart_hover"",""data"":{""x"":1093,""y"":410,""timestamp"":71672.20000000298},""timestamp"":71672.20000000298},{""type"":""chart_hover"",""data"":{""x"":1091,""y"":408,""timestamp"":71688.80000000075},""timestamp"":71688.80000000075},{""type"":""chart_hover"",""data"":{""x"":1089,""y"":407,""timestamp"":71705.90000000224},""timestamp"":71705.90000000224},{""type"":""chart_hover"",""data"":{""x"":1086,""y"":405,""timestamp"":71722.20000000298},""timestamp"":71722.20000000298},{""type"":""chart_hover"",""data"":{""x"":1077,""y"":402,""timestamp"":71739.40000000224},""timestamp"":71739.40000000224},{""type"":""chart_hover"",""data"":{""x"":1068,""y"":401,""timestamp"":71755.5},""timestamp"":71755.5},{""type"":""chart_hover"",""data"":{""x"":1057,""y"":400,""timestamp"":71772.20000000298},""timestamp"":71772.20000000298},{""type"":""chart_hover"",""data"":{""x"":1047,""y"":399,""timestamp"":71789.30000000075},""timestamp"":71789.30000000075},{""type"":""chart_hover"",""data"":{""x"":1033,""y"":397,""timestamp"":71806.10000000149},""timestamp"":71806.10000000149},{""type"":""chart_hover"",""data"":{""x"":1029,""y"":396,""timestamp"":71821.40000000224},""timestamp"":71821.40000000224},{""type"":""chart_hover"",""data"":{""x"":1026,""y"":392,""timestamp"":71838.80000000075},""timestamp"":71838.90000000224},{""type"":""chart_hover"",""data"":{""x"":1025,""y"":387,""timestamp"":71855.60000000149},""timestamp"":71855.60000000149},{""type"":""chart_hover"",""data"":{""x"":1024,""y"":377,""timestamp"":71872.20000000298},""timestamp"":71872.20000000298},{""type"":""chart_hover"",""data"":{""x"":1024,""y"":363,""timestamp"":71889.90000000224},""timestamp"":71889.90000000224},{""type"":""chart_hover"",""data"":{""x"":1024,""y"":348,""timestamp"":71905.60000000149},""timestamp"":71905.60000000149},{""type"":""chart_hover"",""data"":{""x"":1025,""y"":336,""timestamp"":71922.30000000075},""timestamp"":71922.30000000075},{""type"":""chart_hover"",""data"":{""x"":1027,""y"":325,""timestamp"":71939.20000000298},""timestamp"":71939.20000000298},{""type"":""chart_hover"",""data"":{""x"":1032,""y"":311,""timestamp"":71955.70000000298},""timestamp"":71955.70000000298},{""type"":""chart_hover"",""data"":{""x"":1036,""y"":303,""timestamp"":71972.20000000298},""timestamp"":71972.20000000298},{""type"":""chart_hover"",""data"":{""x"":1043,""y"":296,""timestamp"":71989},""timestamp"":71989},{""type"":""chart_hover"",""data"":{""x"":1051,""y"":286,""timestamp"":72005.90000000224},""timestamp"":72005.90000000224},{""type"":""chart_hover"",""data"":{""x"":1066,""y"":277,""timestamp"":72022.5},""timestamp"":72022.5},{""type"":""chart_hover"",""data"":{""x"":1098,""y"":266,""timestamp"":72039.10000000149},""timestamp"":72039.10000000149},{""type"":""chart_hover"",""data"":{""x"":1109,""y"":264,""timestamp"":72055.80000000075},""timestamp"":72055.80000000075},{""type"":""chart_hover"",""data"":{""x"":1133,""y"":260,""timestamp"":72072.60000000149},""timestamp"":72072.60000000149},{""type"":""chart_hover"",""data"":{""x"":1157,""y"":260,""timestamp"":72089.20000000298},""timestamp"":72089.20000000298},{""type"":""chart_hover"",""data"":{""x"":1189,""y"":260,""timestamp"":72105.90000000224},""timestamp"":72105.90000000224},{""type"":""chart_hover"",""data"":{""x"":1207,""y"":262,""timestamp"":72122.5},""timestamp"":72122.5},{""type"":""chart_hover"",""data"":{""x"":1220,""y"":263,""timestamp"":72139.30000000075},""timestamp"":72139.30000000075},{""type"":""chart_hover"",""data"":{""x"":1230,""y"":265,""timestamp"":72155.80000000075},""timestamp"":72155.80000000075},{""type"":""chart_hover"",""data"":{""x"":1232,""y"":266,""timestamp"":72172.5},""timestamp"":72172.5},{""type"":""chart_hover"",""data"":{""x"":1236,""y"":268,""timestamp"":72189.20000000298},""timestamp"":72189.20000000298},{""type"":""chart_hover"",""data"":{""x"":1244,""y"":272,""timestamp"":72205.90000000224},""timestamp"":72205.90000000224},{""type"":""chart_hover"",""data"":{""x"":1256,""y"":277,""timestamp"":72222.70000000298},""timestamp"":72222.70000000298},{""type"":""chart_hover"",""data"":{""x"":1270,""y"":283,""timestamp"":72239.30000000075},""timestamp"":72239.30000000075},{""type"":""chart_hover"",""data"":{""x"":1287,""y"":289,""timestamp"":72256.80000000075},""timestamp"":72256.80000000075},{""type"":""chart_hover"",""data"":{""x"":1302,""y"":294,""timestamp"":72272.60000000149},""timestamp"":72272.60000000149},{""type"":""chart_hover"",""data"":{""x"":1314,""y"":297,""timestamp"":72289.30000000075},""timestamp"":72289.30000000075},{""type"":""chart_hover"",""data"":{""x"":1320,""y"":299,""timestamp"":72305.90000000224},""timestamp"":72305.90000000224},{""type"":""chart_hover"",""data"":{""x"":1321,""y"":299,""timestamp"":72322.5},""timestamp"":72322.5},{""type"":""chart_hover"",""data"":{""x"":1321,""y"":299,""timestamp"":72339.20000000298},""timestamp"":72339.20000000298},{""type"":""chart_hover"",""data"":{""x"":1321,""y"":299,""timestamp"":72449.30000000075},""timestamp"":72449.30000000075},{""type"":""chart_hover"",""data"":{""x"":1320,""y"":299,""timestamp"":72457.60000000149},""timestamp"":72457.60000000149},{""type"":""chart_hover"",""data"":{""x"":1315,""y"":299,""timestamp"":72472.80000000075},""timestamp"":72472.80000000075},{""type"":""chart_hover"",""data"":{""x"":1307,""y"":299,""timestamp"":72489.40000000224},""timestamp"":72489.40000000224},{""type"":""chart_hover"",""data"":{""x"":1296,""y"":299,""timestamp"":72506.20000000298},""timestamp"":72506.20000000298},{""type"":""chart_hover"",""data"":{""x"":1285,""y"":299,""timestamp"":72523},""timestamp"":72523},{""type"":""chart_hover"",""data"":{""x"":1271,""y"":299,""timestamp"":72539.60000000149},""timestamp"":72539.60000000149},{""type"":""chart_hover"",""data"":{""x"":1246,""y"":299,""timestamp"":72556.20000000298},""timestamp"":72556.20000000298},{""type"":""chart_hover"",""data"":{""x"":1228,""y"":299,""timestamp"":72573.80000000075},""timestamp"":72573.80000000075},{""type"":""chart_hover"",""data"":{""x"":1211,""y"":299,""timestamp"":72588.5},""timestamp"":72588.5},{""type"":""chart_hover"",""data"":{""x"":1194,""y"":299,""timestamp"":72606.10000000149},""timestamp"":72606.10000000149},{""type"":""chart_hover"",""data"":{""x"":1184,""y"":299,""timestamp"":72623.80000000075},""timestamp"":72623.80000000075},{""type"":""chart_hover"",""data"":{""x"":1179,""y"":299,""timestamp"":72639.60000000149},""timestamp"":72639.60000000149},{""type"":""chart_hover"",""data"":{""x"":1178,""y"":299,""timestamp"":72656.20000000298},""timestamp"":72656.20000000298},{""type"":""chart_hover"",""data"":{""x"":1177,""y"":299,""timestamp"":72673},""timestamp"":72673},{""type"":""chart_hover"",""data"":{""x"":1176,""y"":299,""timestamp"":72689.70000000298},""timestamp"":72689.70000000298},{""type"":""chart_hover"",""data"":{""x"":1175,""y"":299,""timestamp"":72706.40000000224},""timestamp"":72706.40000000224},{""type"":""chart_hover"",""data"":{""x"":1171,""y"":299,""timestamp"":72723},""timestamp"":72723.10000000149},{""type"":""chart_hover"",""data"":{""x"":1166,""y"":299,""timestamp"":72739.80000000075},""timestamp"":72739.80000000075},{""type"":""chart_hover"",""data"":{""x"":1159,""y"":299,""timestamp"":72756.30000000075},""timestamp"":72756.30000000075},{""type"":""chart_hover"",""data"":{""x"":1155,""y"":298,""timestamp"":72772.90000000224},""timestamp"":72772.90000000224},{""type"":""chart_hover"",""data"":{""x"":1151,""y"":298,""timestamp"":72789.80000000075},""timestamp"":72789.80000000075},{""type"":""chart_hover"",""data"":{""x"":1150,""y"":298,""timestamp"":72806.10000000149},""timestamp"":72806.10000000149},{""type"":""chart_hover"",""data"":{""x"":1147,""y"":297,""timestamp"":72823.10000000149},""timestamp"":72823.10000000149},{""type"":""chart_hover"",""data"":{""x"":1145,""y"":297,""timestamp"":72839.80000000075},""timestamp"":72839.80000000075},{""type"":""chart_hover"",""data"":{""x"":1144,""y"":297,""timestamp"":72856.40000000224},""timestamp"":72856.40000000224},{""type"":""chart_hover"",""data"":{""x"":1141,""y"":297,""timestamp"":72873.20000000298},""timestamp"":72873.20000000298},{""type"":""chart_hover"",""data"":{""x"":1137,""y"":297,""timestamp"":72889.80000000075},""timestamp"":72889.80000000075},{""type"":""chart_hover"",""data"":{""x"":1128,""y"":297,""timestamp"":72906.70000000298},""timestamp"":72906.70000000298},{""type"":""chart_hover"",""data"":{""x"":1121,""y"":297,""timestamp"":72923.20000000298},""timestamp"":72923.20000000298},{""type"":""chart_hover"",""data"":{""x"":1113,""y"":297,""timestamp"":72939.80000000075},""timestamp"":72939.90000000224},{""type"":""chart_hover"",""data"":{""x"":1106,""y"":298,""timestamp"":72956.5},""timestamp"":72956.5},{""type"":""chart_hover"",""data"":{""x"":1102,""y"":298,""timestamp"":72973},""timestamp"":72973},{""type"":""chart_hover"",""data"":{""x"":1100,""y"":298,""timestamp"":72996.30000000075},""timestamp"":72996.30000000075},{""type"":""chart_hover"",""data"":{""x"":1100,""y"":298,""timestamp"":73006.30000000075},""timestamp"":73006.30000000075},{""type"":""chart_hover"",""data"":{""x"":1099,""y"":298,""timestamp"":73023},""timestamp"":73023},{""type"":""chart_hover"",""data"":{""x"":1098,""y"":298,""timestamp"":73039.90000000224},""timestamp"":73039.90000000224},{""type"":""chart_hover"",""data"":{""x"":1096,""y"":298,""timestamp"":73056.60000000149},""timestamp"":73056.60000000149},{""type"":""chart_hover"",""data"":{""x"":1094,""y"":298,""timestamp"":73073.30000000075},""timestamp"":73073.30000000075},{""type"":""chart_hover"",""data"":{""x"":1093,""y"":298,""timestamp"":73089.90000000224},""timestamp"":73089.90000000224},{""type"":""chart_hover"",""data"":{""x"":1091,""y"":298,""timestamp"":73106.80000000075},""timestamp"":73106.80000000075},{""type"":""chart_hover"",""data"":{""x"":1087,""y"":298,""timestamp"":73123.40000000224},""timestamp"":73123.40000000224},{""type"":""chart_hover"",""data"":{""x"":1074,""y"":299,""timestamp"":73140},""timestamp"":73140},{""type"":""chart_hover"",""data"":{""x"":1066,""y"":299,""timestamp"":73156.60000000149},""timestamp"":73156.60000000149},{""type"":""chart_hover"",""data"":{""x"":1063,""y"":300,""timestamp"":73173.30000000075},""timestamp"":73173.30000000075},{""type"":""chart_hover"",""data"":{""x"":1058,""y"":300,""timestamp"":73190.10000000149},""timestamp"":73190.10000000149},{""type"":""chart_hover"",""data"":{""x"":1056,""y"":300,""timestamp"":73206.80000000075},""timestamp"":73206.80000000075},{""type"":""chart_hover"",""data"":{""x"":1055,""y"":300,""timestamp"":73223.5},""timestamp"":73223.5},{""type"":""chart_hover"",""data"":{""x"":1054,""y"":300,""timestamp"":73240},""timestamp"":73240},{""type"":""chart_hover"",""data"":{""x"":1054,""y"":300,""timestamp"":73334.30000000075},""timestamp"":73334.30000000075},{""type"":""chart_hover"",""data"":{""x"":1054,""y"":300,""timestamp"":73350.30000000075},""timestamp"":73350.30000000075},{""type"":""chart_hover"",""data"":{""x"":1054,""y"":300,""timestamp"":73365.5},""timestamp"":73365.5},{""type"":""chart_hover"",""data"":{""x"":1053,""y"":300,""timestamp"":73379.90000000224},""timestamp"":73379.90000000224},{""type"":""chart_hover"",""data"":{""x"":1053,""y"":300,""timestamp"":73403.40000000224},""timestamp"":73403.5},{""type"":""chart_hover"",""data"":{""x"":1053,""y"":300,""timestamp"":73509.5},""timestamp"":73509.60000000149},{""type"":""chart_hover"",""data"":{""x"":1053,""y"":300,""timestamp"":73524.20000000298},""timestamp"":73524.20000000298},{""type"":""chart_hover"",""data"":{""x"":1052,""y"":300,""timestamp"":73540.40000000224},""timestamp"":73540.40000000224},{""type"":""chart_hover"",""data"":{""x"":1052,""y"":300,""timestamp"":73560.5},""timestamp"":73560.5},{""type"":""chart_hover"",""data"":{""x"":1052,""y"":299,""timestamp"":73573.70000000298},""timestamp"":73573.70000000298},{""type"":""chart_hover"",""data"":{""x"":1051,""y"":299,""timestamp"":73590.20000000298},""timestamp"":73590.20000000298},{""type"":""chart_hover"",""data"":{""x"":1051,""y"":299,""timestamp"":73607.10000000149},""timestamp"":73607.10000000149},{""type"":""chart_hover"",""data"":{""x"":1050,""y"":299,""timestamp"":73623.60000000149},""timestamp"":73623.60000000149},{""type"":""chart_hover"",""data"":{""x"":1051,""y"":299,""timestamp"":73673.80000000075},""timestamp"":73673.80000000075},{""type"":""chart_hover"",""data"":{""x"":1055,""y"":298,""timestamp"":73690.5},""timestamp"":73690.5},{""type"":""chart_hover"",""data"":{""x"":1063,""y"":296,""timestamp"":73707.20000000298},""timestamp"":73707.20000000298},{""type"":""chart_hover"",""data"":{""x"":1075,""y"":295,""timestamp"":73723.90000000224},""timestamp"":73723.90000000224},{""type"":""chart_hover"",""data"":{""x"":1091,""y"":294,""timestamp"":73740.30000000075},""timestamp"":73740.30000000075},{""type"":""chart_hover"",""data"":{""x"":1108,""y"":294,""timestamp"":73757.90000000224},""timestamp"":73757.90000000224},{""type"":""chart_hover"",""data"":{""x"":1127,""y"":294,""timestamp"":73773.80000000075},""timestamp"":73773.80000000075},{""type"":""chart_hover"",""data"":{""x"":1142,""y"":294,""timestamp"":73790.60000000149},""timestamp"":73790.60000000149},{""type"":""chart_hover"",""data"":{""x"":1157,""y"":294,""timestamp"":73807.30000000075},""timestamp"":73807.30000000075},{""type"":""chart_hover"",""data"":{""x"":1163,""y"":294,""timestamp"":73823.90000000224},""timestamp"":73823.90000000224},{""type"":""chart_hover"",""data"":{""x"":1167,""y"":294,""timestamp"":73840.60000000149},""timestamp"":73840.60000000149},{""type"":""chart_hover"",""data"":{""x"":1168,""y"":295,""timestamp"":73857.30000000075},""timestamp"":73857.30000000075},{""type"":""chart_hover"",""data"":{""x"":1170,""y"":295,""timestamp"":73874.10000000149},""timestamp"":73874.10000000149},{""type"":""chart_hover"",""data"":{""x"":1172,""y"":295,""timestamp"":73890.70000000298},""timestamp"":73890.70000000298},{""type"":""chart_hover"",""data"":{""x"":1177,""y"":295,""timestamp"":73907.30000000075},""timestamp"":73907.30000000075},{""type"":""chart_hover"",""data"":{""x"":1180,""y"":295,""timestamp"":73923.90000000224},""timestamp"":73924},{""type"":""chart_hover"",""data"":{""x"":1185,""y"":295,""timestamp"":73940.5},""timestamp"":73940.5},{""type"":""chart_hover"",""data"":{""x"":1195,""y"":295,""timestamp"":73958.10000000149},""timestamp"":73958.10000000149},{""type"":""chart_hover"",""data"":{""x"":1202,""y"":295,""timestamp"":73973.80000000075},""timestamp"":73973.80000000075},{""type"":""chart_hover"",""data"":{""x"":1210,""y"":295,""timestamp"":73990.60000000149},""timestamp"":73990.60000000149},{""type"":""chart_hover"",""data"":{""x"":1220,""y"":295,""timestamp"":74007.30000000075},""timestamp"":74007.30000000075},{""type"":""chart_hover"",""data"":{""x"":1230,""y"":295,""timestamp"":74024.20000000298},""timestamp"":74024.20000000298},{""type"":""chart_hover"",""data"":{""x"":1241,""y"":295,""timestamp"":74040.80000000075},""timestamp"":74040.80000000075},{""type"":""chart_hover"",""data"":{""x"":1246,""y"":295,""timestamp"":74057.5},""timestamp"":74057.5},{""type"":""chart_hover"",""data"":{""x"":1249,""y"":295,""timestamp"":74074.10000000149},""timestamp"":74074.10000000149},{""type"":""chart_hover"",""data"":{""x"":1250,""y"":295,""timestamp"":74089.70000000298},""timestamp"":74089.70000000298},{""type"":""chart_hover"",""data"":{""x"":1251,""y"":295,""timestamp"":74107.40000000224},""timestamp"":74107.40000000224},{""type"":""chart_hover"",""data"":{""x"":1252,""y"":295,""timestamp"":74123.90000000224},""timestamp"":74123.90000000224},{""type"":""chart_hover"",""data"":{""x"":1253,""y"":295,""timestamp"":74140.70000000298},""timestamp"":74140.70000000298},{""type"":""chart_hover"",""data"":{""x"":1254,""y"":295,""timestamp"":74157.5},""timestamp"":74157.5},{""type"":""chart_hover"",""data"":{""x"":1255,""y"":295,""timestamp"":74174.30000000075},""timestamp"":74174.30000000075},{""type"":""chart_hover"",""data"":{""x"":1257,""y"":295,""timestamp"":74191},""timestamp"":74191},{""type"":""chart_hover"",""data"":{""x"":1258,""y"":295,""timestamp"":74207.5},""timestamp"":74207.5},{""type"":""chart_hover"",""data"":{""x"":1260,""y"":295,""timestamp"":74224.20000000298},""timestamp"":74224.20000000298},{""type"":""chart_hover"",""data"":{""x"":1261,""y"":295,""timestamp"":74240.90000000224},""timestamp"":74240.90000000224},{""type"":""chart_hover"",""data"":{""x"":1261,""y"":296,""timestamp"":74257.60000000149},""timestamp"":74257.60000000149},{""type"":""chart_hover"",""data"":{""x"":1262,""y"":296,""timestamp"":74274.30000000075},""timestamp"":74274.30000000075},{""type"":""chart_hover"",""data"":{""x"":1264,""y"":296,""timestamp"":74291},""timestamp"":74291},{""type"":""chart_hover"",""data"":{""x"":1265,""y"":296,""timestamp"":74307.5},""timestamp"":74307.5},{""type"":""chart_hover"",""data"":{""x"":1267,""y"":296,""timestamp"":74324.30000000075},""timestamp"":74324.30000000075},{""type"":""chart_hover"",""data"":{""x"":1269,""y"":296,""timestamp"":74341},""timestamp"":74341},{""type"":""chart_hover"",""data"":{""x"":1273,""y"":297,""timestamp"":74357.80000000075},""timestamp"":74357.80000000075},{""type"":""chart_hover"",""data"":{""x"":1277,""y"":297,""timestamp"":74374.5},""timestamp"":74374.5},{""type"":""chart_hover"",""data"":{""x"":1281,""y"":297,""timestamp"":74391.10000000149},""timestamp"":74391.10000000149},{""type"":""chart_hover"",""data"":{""x"":1285,""y"":297,""timestamp"":74407.80000000075},""timestamp"":74407.80000000075},{""type"":""chart_hover"",""data"":{""x"":1289,""y"":297,""timestamp"":74424.5},""timestamp"":74424.5},{""type"":""chart_hover"",""data"":{""x"":1293,""y"":297,""timestamp"":74441.10000000149},""timestamp"":74441.10000000149},{""type"":""chart_hover"",""data"":{""x"":1294,""y"":296,""timestamp"":74457.90000000224},""timestamp"":74457.90000000224},{""type"":""chart_hover"",""data"":{""x"":1295,""y"":296,""timestamp"":74474.70000000298},""timestamp"":74474.70000000298},{""type"":""chart_hover"",""data"":{""x"":1296,""y"":296,""timestamp"":74491.20000000298},""timestamp"":74491.20000000298},{""type"":""chart_hover"",""data"":{""x"":1297,""y"":296,""timestamp"":74508},""timestamp"":74508},{""type"":""chart_hover"",""data"":{""x"":1298,""y"":296,""timestamp"":74524.60000000149},""timestamp"":74524.60000000149},{""type"":""chart_hover"",""data"":{""x"":1298,""y"":295,""timestamp"":74541.30000000075},""timestamp"":74541.30000000075},{""type"":""chart_hover"",""data"":{""x"":1300,""y"":295,""timestamp"":74557.90000000224},""timestamp"":74557.90000000224},{""type"":""chart_hover"",""data"":{""x"":1301,""y"":295,""timestamp"":74574.5},""timestamp"":74574.5},{""type"":""chart_hover"",""data"":{""x"":1302,""y"":295,""timestamp"":74591.30000000075},""timestamp"":74591.30000000075},{""type"":""chart_hover"",""data"":{""x"":1303,""y"":295,""timestamp"":74608},""timestamp"":74608},{""type"":""chart_hover"",""data"":{""x"":1304,""y"":295,""timestamp"":74624.60000000149},""timestamp"":74624.70000000298},{""type"":""chart_hover"",""data"":{""x"":1304,""y"":295,""timestamp"":74641.40000000224},""timestamp"":74641.40000000224},{""type"":""chart_hover"",""data"":{""x"":1304,""y"":295,""timestamp"":74691.30000000075},""timestamp"":74691.30000000075},{""type"":""chart_hover"",""data"":{""x"":1304,""y"":294,""timestamp"":75000.70000000298},""timestamp"":75000.70000000298},{""type"":""chart_hover"",""data"":{""x"":1304,""y"":293,""timestamp"":75025},""timestamp"":75025},{""type"":""chart_hover"",""data"":{""x"":1304,""y"":291,""timestamp"":75041.60000000149},""timestamp"":75041.70000000298},{""type"":""chart_hover"",""data"":{""x"":1304,""y"":290,""timestamp"":75058.20000000298},""timestamp"":75058.20000000298},{""type"":""chart_hover"",""data"":{""x"":1304,""y"":289,""timestamp"":75074.70000000298},""timestamp"":75074.70000000298},{""type"":""chart_hover"",""data"":{""x"":1304,""y"":288,""timestamp"":75091.80000000075},""timestamp"":75091.80000000075},{""type"":""chart_hover"",""data"":{""x"":1304,""y"":288,""timestamp"":75110.5},""timestamp"":75110.5},{""type"":""chart_hover"",""data"":{""x"":1304,""y"":288,""timestamp"":75186.90000000224},""timestamp"":75186.90000000224},{""type"":""chart_hover"",""data"":{""x"":1304,""y"":288,""timestamp"":75194.60000000149},""timestamp"":75194.60000000149},{""type"":""chart_hover"",""data"":{""x"":1304,""y"":287,""timestamp"":75208.30000000075},""timestamp"":75208.30000000075},{""type"":""chart_hover"",""data"":{""x"":1304,""y"":287,""timestamp"":75225.10000000149},""timestamp"":75225.10000000149},{""type"":""chart_hover"",""data"":{""x"":1303,""y"":286,""timestamp"":75241.70000000298},""timestamp"":75241.70000000298},{""type"":""chart_hover"",""data"":{""x"":1303,""y"":285,""timestamp"":75258.5},""timestamp"":75258.5},{""type"":""chart_hover"",""data"":{""x"":1303,""y"":285,""timestamp"":75275.30000000075},""timestamp"":75275.30000000075},{""type"":""chart_hover"",""data"":{""x"":1302,""y"":285,""timestamp"":75292.80000000075},""timestamp"":75292.80000000075},{""type"":""chart_hover"",""data"":{""x"":1303,""y"":285,""timestamp"":75764.5},""timestamp"":75764.5},{""type"":""chart_hover"",""data"":{""x"":1303,""y"":286,""timestamp"":75779.20000000298},""timestamp"":75779.20000000298},{""type"":""chart_hover"",""data"":{""x"":1303,""y"":286,""timestamp"":75793.70000000298},""timestamp"":75793.70000000298},{""type"":""chart_hover"",""data"":{""x"":1304,""y"":287,""timestamp"":75809},""timestamp"":75809},{""type"":""chart_hover"",""data"":{""x"":1305,""y"":291,""timestamp"":75825.60000000149},""timestamp"":75825.60000000149},{""type"":""chart_hover"",""data"":{""x"":1305,""y"":295,""timestamp"":75843},""timestamp"":75843},{""type"":""chart_hover"",""data"":{""x"":1306,""y"":303,""timestamp"":75858.90000000224},""timestamp"":75858.90000000224},{""type"":""chart_hover"",""data"":{""x"":1306,""y"":320,""timestamp"":75875.80000000075},""timestamp"":75875.80000000075},{""type"":""chart_hover"",""data"":{""x"":1304,""y"":336,""timestamp"":75892.5},""timestamp"":75892.5},{""type"":""chart_hover"",""data"":{""x"":1301,""y"":353,""timestamp"":75909.10000000149},""timestamp"":75909.10000000149},{""type"":""chart_hover"",""data"":{""x"":1297,""y"":371,""timestamp"":75925.80000000075},""timestamp"":75925.80000000075},{""type"":""chart_hover"",""data"":{""x"":1294,""y"":393,""timestamp"":75942.40000000224},""timestamp"":75942.40000000224},{""type"":""chart_hover"",""data"":{""x"":1289,""y"":416,""timestamp"":75959.10000000149},""timestamp"":75959.10000000149},{""type"":""chart_hover"",""data"":{""x"":1285,""y"":442,""timestamp"":75975.80000000075},""timestamp"":75975.80000000075},{""type"":""chart_hover"",""data"":{""x"":1282,""y"":455,""timestamp"":75992.5},""timestamp"":75992.5},{""type"":""chart_hover"",""data"":{""x"":1275,""y"":497,""timestamp"":76009.20000000298},""timestamp"":76009.20000000298},{""type"":""chart_hover"",""data"":{""x"":1273,""y"":526,""timestamp"":76026},""timestamp"":76026},{""type"":""chart_hover"",""data"":{""x"":1278,""y"":565,""timestamp"":76042.40000000224},""timestamp"":76042.40000000224},{""type"":""chart_hover"",""data"":{""x"":1283,""y"":589,""timestamp"":76059.10000000149},""timestamp"":76059.10000000149},{""type"":""chart_leave"",""data"":{""timestamp"":76076},""timestamp"":76076}]",0.0-8.0,654a86d08714f739c9fcea21,,1,,,false,65,,,,1,109531.10000000149,,,true,,,,578275,,,543,,,City A,8,prediction-task,,,,,,true
