city_a_estimate,city_b_estimate,click_events,comprehension_ease,condition,condition_id,condition_name,confidence_label,confidence_rating,data_trust,display_format,end_time,hover_events,interaction_log,internal_node_id,participant_id,percent_score,phase,phase1_complete,phase2_complete,predictions_shown,probability_estimate,question_order,response,responses,round,rt,rt_total,skeptical_rating,start_time,stimulus,success,time_elapsed,time_on_viz,total_interactions,total_questions,total_score,travel_choice,trial_index,trial_type,trust_composite,usability_composite,usability_difficulty,view_history,visualization_literacy_score,visualization_shown
,,,,,,,,,,,,,,0.0-0.0,66573c811d17794993965781,,,,,,,,0,,,2020,,,,"
	        <div class=""welcome-screen"">
	            <h1>Air Quality Prediction Study</h1>
	            <p>Welcome! You are about to participate in a research study about how people make decisions using air quality predictions. This study examines how different ways of presenting prediction information affect trust and decision-making. The study will take approximately 15 minutes.</p>
	            <div class=""study-info"">
	                <h3>What you'll do:</h3>
	                <ul>
	                    <li>Complete a brief assessment of visualization understanding</li>
	                    <li>Make predictions about air quality in two cities</li>
	                    <li>Answer questions about your confidence and trust</li>
						<li>Report basic demographic data</li>
	                </ul>
	            </div>
	        </div>
	    ",,2023,,,,,,0,html-button-response,,,,,,
,,,,,,,,,,,,,,0.0-1.0,66573c811d17794993965781,,,,,,,,,,,2023,,,,,true,5048,,,,,,1,fullscreen,,,,,,
,,,,,,,,,,,,,,0.0-2.0,66573c811d17794993965781,,,,,,,,"{""participant_id"":""66573c811d17794993965781""}",,,4758,,,,,,9812,,,,,,2,survey-text,,,,,,
,,,,,,,,,,,,,,0.0-3.0,66573c811d17794993965781,,,,,,,,0,,,2896,,,,"
	        <div class=""consent-form"">
	            <h2>Consent Form</h2>
	            <div class=""consent-header"">
	                <p><strong>Principal Investigator:</strong> Dr. Cindy Xiong Bearfield, Assistant Professor</p>
	                <p><strong>Study Title:</strong> Trusting What We See: Effect of Interactivity in Visual Data Analysis</p>
	                <p><strong>Supported By:</strong> Georgia Institute of Technology</p>
	            </div>
	            
	            <div class=""consent-details"">
	                <h3>WHAT IS THIS FORM?</h3>
	                <p>This form is called a Consent Form. It will give you information about the study so you can make an informed decision about participation in this research. We encourage you to take some time to think this over and ask questions now and at any other time. If you decide to participate, you will be asked to sign this form and you will be given a copy for your records.</p>

	                <h3>WHAT ARE SOME OF THE IMPORTANT ASPECTS OF THIS RESEARCH STUDY THAT I SHOULD BE AWARE OF?</h3>
	                <ul>
	                    <li>Whether or not you take part is up to you.</li>
	                    <li>You can choose not to take part.</li>
	                    <li>You can agree to take part and later change your mind.</li>
	                    <li>Your decision will not be held against you.</li>
	                </ul>

	                <h3>WHY ARE WE DOING THIS RESEARCH STUDY?</h3>
	                <p>The purpose of our study is to explore the visualization design space so we can understand how people perceive, interpret, and make decisions from visualizations. The results from this study can help us design visualizations and visualization guidelines to help people better communicate and understand data.</p>

	                <h3>WHO CAN PARTICIPATE IN THIS RESEARCH STUDY?</h3>
	                <p>Participants in this study must be at least 18 years of age or older and have general familiarity with using web-based systems. Participants currently outside of the U.S. cannot participate in this study (e.g. in the European Union or China).</p>

	                <h3>WHAT COMPENSATION I WILL RECEIVE?</h3>
	                <p>You will receive payment through Prolific worth $12/hour for participating in this study. We expect this study to take less than 20 minutes. Your participation is entirely voluntary. You are free to withdraw at any time, and if you do, you will receive partial payment for your time.</p>

	                <h3>HOW MANY PEOPLE WILL PARTICIPATE?</h3>
	                <p>We expect about 200 people will be in this research study.</p>

	                <h3>WHAT WILL I BE ASKED TO DO AND HOW MUCH TIME WILL IT TAKE?</h3>
	                <p>We will show you several data visualizations or components of a visualization and ask you to perform a visual task with the visualization on a computer screen, such as counting, searching, recognizing, memorizing, or describing the information presented to you. We may also ask you to fill out questionnaires concerning your thoughts regarding the visualization you saw. We expect that you will be in this research study to take between 15 and 60 minutes. We expect this study to be a one-off session and will not contact you regarding the study itself in the future.</p>

	                <h3>WILL BEING IN THIS RESEARCH STUDY HELP ME IN ANY WAY?</h3>
	                <p>You are not likely to have any direct benefit from being in this research study. The potential benefits to you from participation may include learning about how data visualization research is conducted, and you may learn about issues of current interest in data visualization and psychology.</p>

	                <h3>WHAT ARE MY RISKS OF BEING IN THIS RESEARCH STUDY?</h3>
	                <p>Your participation in this study does not involve any risks other than what you would encounter in daily life. In particular, you may experience fatigue or boredom, however, you may take breaks between tasks. The effects of participating should be comparable to those you would experience from viewing a computer monitor and using a keyboard. You may withdraw at any time.</p>

	                <h3>HOW WILL MY PERSONAL INFORMATION BE PROTECTED?</h3>
	                <p>We will comply with any applicable laws and regulations regarding confidentiality. To make sure that this research is being carried out in the proper way, the Georgia Institute of Technology IRB may review study records. The Office of Human Research Protections may also look at study records.</p>
	                <p>Efforts will be made to limit the use and disclosure of your personal information, including research study records, to people who need to review this information. We cannot promise complete secrecy. Organizations that may inspect and copy your information include the IRB and other representatives of this institution. Please be notified that our data privacy policy is based on U.S. regulations. Participants who are out of the U.S. might be excluded due to different data privacy requirements.</p>
	                <p><strong>Data Sharing:</strong> De-identified data from this study will be shared among the GATech research team, as well as the research community at large to advance science and health. We will remove or code any personal information that could identify you before files are shared with other researchers to ensure that, by current scientific standards and known methods, no one will be able to identify you from the information we share. Despite these measures, we cannot guarantee the anonymity of your personal data.</p>

	                <h3>WILL I BE GIVEN ANY MONEY OR OTHER COMPENSATION FOR BEING IN THIS RESEARCH STUDY?</h3>
	                <p>If you agree to take part in this research study, we will provide compensation. You will be paid in accordance with the stated policies of Amazon Mechanical Turk and/or Prolific.com. Payment will be made upon completion and acceptance of tasks that you have agreed to complete and you will be paid via Mechanical Turk or Prolific.com. If you choose to withdraw from the study, you will not be compensated for your participation.</p>

	                <h3>WHAT ELSE DO I NEED TO KNOW?</h3>
	                <p>We might be using attention check questions in our surveys. If you miss 2 or more attention check questions, your HIT will not be accepted and you will not be compensated.</p>

	                <h3>WHO CAN I TALK TO IF I HAVE QUESTIONS?</h3>
	                <p>If you have any questions about the content of this research project, you may contact Dr. Cindy Xiong Bearfield at cxiong@gatech.edu, or contact Songwen Hu at shu343@gatech.edu. If you have any questions about your rights as a research subject, you may also contact Georgia Institute of Technology Office of Research Integrity Assurance at IRB@gatech.edu.</p>

	                <h3>WHAT HAPPENS IF I SAY YES, BUT I CHANGE MY MIND LATER?</h3>
	                <p>You can decide not to participate in this research or you can start and then decide to leave the research at any time and it will not be held against you. To do so, simply exit the experiment. Any data already collected will not be saved.</p>

	                <p><strong>By clicking ""I agree"" below you are indicating that you are at least 18 years old, currently in the U.S., have read this consent form, and agree to participate in this research study. Please print a copy of this page for your records.</strong></p>
	            </div>
	        </div>
	    ",,12710,,,,,,3,html-button-response,,,,,,
,,,,,,,,,,,,,,0.0-4.0,66573c811d17794993965781,,,,,,,,0,,,5461,,,,"
	        <div class=""vis-literacy-intro"">
	            <h2>Visualization Assessment</h2>
	            <p>Before we begin the main study, we'd like to assess your ability to read and interpret data visualizations.</p>
	            
	            <div class=""assessment-info"">
	                <h3>What you'll do:</h3>
	                <ul>
	                    <li>View 12 different data visualizations (charts and graphs)</li>
	                    <li>Answer questions about what each visualization shows</li>
	                    <li>Take your time to examine each chart carefully</li>
	                </ul>
	                
	                <p><strong>This assessment will take approximately 5-10 minutes.</strong></p>
	                <p>There are no right or wrong interpretations - we're interested in how you read visualizations.</p>
	            </div>
	        </div>
	    ",,18172,,,,,,4,html-button-response,,,,,,
,,,,,condition_7_buggy,Buggy Control,,,,,,,,0.0-5.0,66573c811d17794993965781,25,,,,,,,,"[{""question_id"":""minivlat_1"",""question_type"":""line_chart"",""question_text"":""What was the price range of a barrel of oil in 2020?"",""response"":0,""correct_answer"":0,""is_correct"":true,""rt"":20309.5},{""question_id"":""minivlat_2"",""question_type"":""bar_chart"",""question_text"":""What is the range of the average internet speed in Asia?"",""response"":0,""correct_answer"":3,""is_correct"":false,""rt"":56328},{""question_id"":""minivlat_3"",""question_type"":""stacked_bar"",""question_text"":""What is the cost of peanuts in Las Vegas?"",""response"":2,""correct_answer"":1,""is_correct"":false,""rt"":64518},{""question_id"":""minivlat_4"",""question_type"":""stacked_100_bar"",""question_text"":""What is the approval rating of Republicans among postgraduate-educated people?"",""response"":0,""correct_answer"":1,""is_correct"":false,""rt"":65217.5},{""question_id"":""minivlat_5"",""question_type"":""pie_chart"",""question_text"":""About what is the global smartphone market share of Samsung?"",""response"":2,""correct_answer"":1,""is_correct"":false,""rt"":19472.800003051758},{""question_id"":""minivlat_6"",""question_type"":""histogram"",""question_text"":""How many people have rated the taxi between 4.2 and 4.4?"",""response"":3,""correct_answer"":1,""is_correct"":false,""rt"":40244.29999542236},{""question_id"":""minivlat_7"",""question_type"":""scatter_plot"",""question_text"":""There is a negative linear relationship between the height and the weight of the 85 males."",""response"":1,""correct_answer"":1,""is_correct"":true,""rt"":15289.800003051758},{""question_id"":""minivlat_8"",""question_type"":""area_chart"",""question_text"":""What was the average price of a pound of coffee beans in September 2013?"",""response"":3,""correct_answer"":0,""is_correct"":false,""rt"":56003.90000152588},{""question_id"":""minivlat_9"",""question_type"":""stacked_area"",""question_text"":""What was the number of girls named 'Olivia' in 2010 in the UK?"",""response"":1,""correct_answer"":2,""is_correct"":false,""rt"":30933.199996948242},{""question_id"":""minivlat_10"",""question_type"":""bubble_chart"",""question_text"":""What is the total length of the metro system in Beijing?"",""response"":2,""correct_answer"":0,""is_correct"":false,""rt"":24327.200004577637},{""question_id"":""minivlat_11"",""question_type"":""choropleth"",""question_text"":""In 2015, the unemployment rate for Washington (WA) was higher than that of Wisconsin (WI)."",""response"":0,""correct_answer"":0,""is_correct"":true,""rt"":12808},{""question_id"":""minivlat_12"",""question_type"":""bubble_chart_multi"",""question_text"":""For which website was the number of unique visitors the largest in 2010?"",""response"":0,""correct_answer"":3,""is_correct"":false,""rt"":29479.299995422363}]",,,434931.5,,,,,453106,,,12,3,,5,vis-literacy,,,,,,
,,,,,,,,,,,,,,0.0-6.0,66573c811d17794993965781,,,,,,,,,,,7214,,,,,,460323,,,,,,6,instructions,,,,"[{""page_index"":0,""viewing_time"":7213}]",,
86,94,,,,condition_0_historical,Historical Only,Somewhat Certain,5,,historical_only,,,"[{""type"":""chart_enter"",""data"":{""timestamp"":612.5},""timestamp"":612.5999984741211},{""type"":""chart_hover"",""data"":{""x"":801,""y"":428,""timestamp"":1674.1999969482422},""timestamp"":1674.1999969482422},{""type"":""chart_hover"",""data"":{""x"":792,""y"":435,""timestamp"":1686.599998474121},""timestamp"":1686.599998474121},{""type"":""chart_hover"",""data"":{""x"":781,""y"":442,""timestamp"":1693.400001525879},""timestamp"":1693.400001525879},{""type"":""chart_hover"",""data"":{""x"":764,""y"":456,""timestamp"":1709.599998474121},""timestamp"":1709.599998474121},{""type"":""chart_hover"",""data"":{""x"":747,""y"":472,""timestamp"":1726.099998474121},""timestamp"":1726.099998474121},{""type"":""chart_hover"",""data"":{""x"":741,""y"":477,""timestamp"":1742.599998474121},""timestamp"":1742.599998474121},{""type"":""chart_hover"",""data"":{""x"":738,""y"":481,""timestamp"":1759.2999954223633},""timestamp"":1759.2999954223633},{""type"":""chart_hover"",""data"":{""x"":731,""y"":489,""timestamp"":1808.900001525879},""timestamp"":1808.900001525879},{""type"":""chart_hover"",""data"":{""x"":729,""y"":489,""timestamp"":1825.6999969482422},""timestamp"":1825.6999969482422},{""type"":""chart_hover"",""data"":{""x"":729,""y"":491,""timestamp"":1844.1999969482422},""timestamp"":1844.1999969482422},{""type"":""chart_hover"",""data"":{""x"":728,""y"":491,""timestamp"":1858.7999954223633},""timestamp"":1858.7999954223633},{""type"":""chart_hover"",""data"":{""x"":728,""y"":492,""timestamp"":1877.599998474121},""timestamp"":1877.599998474121},{""type"":""chart_hover"",""data"":{""x"":727,""y"":492,""timestamp"":1897.7999954223633},""timestamp"":1897.7999954223633},{""type"":""chart_hover"",""data"":{""x"":726,""y"":492,""timestamp"":3886.099998474121},""timestamp"":3886.099998474121},{""type"":""chart_hover"",""data"":{""x"":724,""y"":488,""timestamp"":3903.699996948242},""timestamp"":3903.699996948242},{""type"":""chart_hover"",""data"":{""x"":721,""y"":484,""timestamp"":3920.2999954223633},""timestamp"":3920.2999954223633},{""type"":""chart_hover"",""data"":{""x"":719,""y"":480,""timestamp"":3936.400001525879},""timestamp"":3936.400001525879},{""type"":""chart_hover"",""data"":{""x"":717,""y"":476,""timestamp"":3953.099998474121},""timestamp"":3953.099998474121},{""type"":""chart_hover"",""data"":{""x"":715,""y"":471,""timestamp"":3970},""timestamp"":3970},{""type"":""chart_hover"",""data"":{""x"":712,""y"":467,""timestamp"":3986.5},""timestamp"":3986.5},{""type"":""chart_hover"",""data"":{""x"":710,""y"":462,""timestamp"":4003},""timestamp"":4003},{""type"":""chart_hover"",""data"":{""x"":708,""y"":459,""timestamp"":4019.7999954223633},""timestamp"":4019.7999954223633},{""type"":""chart_hover"",""data"":{""x"":708,""y"":456,""timestamp"":4036.2999954223633},""timestamp"":4036.2999954223633},{""type"":""chart_hover"",""data"":{""x"":707,""y"":452,""timestamp"":4052.699996948242},""timestamp"":4052.699996948242},{""type"":""chart_hover"",""data"":{""x"":706,""y"":451,""timestamp"":4069.5},""timestamp"":4069.5},{""type"":""chart_hover"",""data"":{""x"":705,""y"":448,""timestamp"":4086.099998474121},""timestamp"":4086.099998474121},{""type"":""chart_hover"",""data"":{""x"":704,""y"":444,""timestamp"":4102.699996948242},""timestamp"":4102.699996948242},{""type"":""chart_hover"",""data"":{""x"":702,""y"":441,""timestamp"":4119.299995422363},""timestamp"":4119.299995422363},{""type"":""chart_hover"",""data"":{""x"":701,""y"":439,""timestamp"":4136.299995422363},""timestamp"":4136.299995422363},{""type"":""chart_hover"",""data"":{""x"":701,""y"":436,""timestamp"":4152.699996948242},""timestamp"":4152.699996948242},{""type"":""chart_hover"",""data"":{""x"":700,""y"":433,""timestamp"":4169.099998474121},""timestamp"":4169.099998474121},{""type"":""chart_hover"",""data"":{""x"":700,""y"":432,""timestamp"":4185.900001525879},""timestamp"":4185.900001525879},{""type"":""chart_hover"",""data"":{""x"":700,""y"":430,""timestamp"":4202.400001525879},""timestamp"":4202.400001525879},{""type"":""chart_hover"",""data"":{""x"":700,""y"":429,""timestamp"":4218.900001525879},""timestamp"":4218.900001525879},{""type"":""chart_hover"",""data"":{""x"":700,""y"":428,""timestamp"":4235.799995422363},""timestamp"":4235.799995422363},{""type"":""chart_hover"",""data"":{""x"":700,""y"":427,""timestamp"":4252.299995422363},""timestamp"":4252.299995422363},{""type"":""chart_hover"",""data"":{""x"":699,""y"":427,""timestamp"":4269},""timestamp"":4269},{""type"":""chart_hover"",""data"":{""x"":699,""y"":425,""timestamp"":4285.900001525879},""timestamp"":4285.900001525879},{""type"":""chart_hover"",""data"":{""x"":699,""y"":424,""timestamp"":4318.299995422363},""timestamp"":4318.299995422363},{""type"":""chart_hover"",""data"":{""x"":697,""y"":424,""timestamp"":5682.900001525879},""timestamp"":5683},{""type"":""chart_hover"",""data"":{""x"":695,""y"":427,""timestamp"":5698.5},""timestamp"":5698.5},{""type"":""chart_hover"",""data"":{""x"":690,""y"":430,""timestamp"":5714.900001525879},""timestamp"":5714.900001525879},{""type"":""chart_hover"",""data"":{""x"":684,""y"":435,""timestamp"":5731.599998474121},""timestamp"":5731.599998474121},{""type"":""chart_hover"",""data"":{""x"":677,""y"":443,""timestamp"":5748.199996948242},""timestamp"":5748.199996948242},{""type"":""chart_hover"",""data"":{""x"":668,""y"":452,""timestamp"":5765.099998474121},""timestamp"":5765.199996948242},{""type"":""chart_hover"",""data"":{""x"":662,""y"":458,""timestamp"":5781.400001525879},""timestamp"":5781.400001525879},{""type"":""chart_hover"",""data"":{""x"":660,""y"":462,""timestamp"":5798.5},""timestamp"":5798.5},{""type"":""chart_hover"",""data"":{""x"":658,""y"":464,""timestamp"":5814.799995422363},""timestamp"":5814.799995422363},{""type"":""chart_hover"",""data"":{""x"":652,""y"":470,""timestamp"":5831.599998474121},""timestamp"":5831.599998474121},{""type"":""chart_hover"",""data"":{""x"":651,""y"":473,""timestamp"":5848},""timestamp"":5848},{""type"":""chart_hover"",""data"":{""x"":648,""y"":478,""timestamp"":5864.5},""timestamp"":5864.599998474121},{""type"":""chart_hover"",""data"":{""x"":646,""y"":482,""timestamp"":5881.5},""timestamp"":5881.5},{""type"":""chart_hover"",""data"":{""x"":640,""y"":497,""timestamp"":5931},""timestamp"":5931},{""type"":""chart_hover"",""data"":{""x"":638,""y"":503,""timestamp"":5947.599998474121},""timestamp"":5947.599998474121},{""type"":""chart_hover"",""data"":{""x"":636,""y"":505,""timestamp"":5964.299995422363},""timestamp"":5964.299995422363},{""type"":""chart_hover"",""data"":{""x"":636,""y"":508,""timestamp"":5981.099998474121},""timestamp"":5981.099998474121},{""type"":""chart_hover"",""data"":{""x"":636,""y"":510,""timestamp"":5998.299995422363},""timestamp"":5998.299995422363},{""type"":""chart_hover"",""data"":{""x"":635,""y"":511,""timestamp"":6014.099998474121},""timestamp"":6014.199996948242},{""type"":""chart_hover"",""data"":{""x"":635,""y"":512,""timestamp"":6031.099998474121},""timestamp"":6031.099998474121},{""type"":""chart_hover"",""data"":{""x"":635,""y"":513,""timestamp"":6047.5},""timestamp"":6047.5},{""type"":""chart_hover"",""data"":{""x"":635,""y"":514,""timestamp"":6064.400001525879},""timestamp"":6064.400001525879},{""type"":""chart_hover"",""data"":{""x"":635,""y"":515,""timestamp"":6612.099998474121},""timestamp"":6612.099998474121},{""type"":""chart_hover"",""data"":{""x"":635,""y"":516,""timestamp"":6630.599998474121},""timestamp"":6630.599998474121},{""type"":""chart_hover"",""data"":{""x"":635,""y"":518,""timestamp"":6647.900001525879},""timestamp"":6647.900001525879},{""type"":""chart_hover"",""data"":{""x"":635,""y"":519,""timestamp"":6662.699996948242},""timestamp"":6662.699996948242},{""type"":""chart_hover"",""data"":{""x"":635,""y"":521,""timestamp"":6679.299995422363},""timestamp"":6679.299995422363},{""type"":""chart_hover"",""data"":{""x"":635,""y"":523,""timestamp"":6695.599998474121},""timestamp"":6695.599998474121},{""type"":""chart_hover"",""data"":{""x"":635,""y"":524,""timestamp"":6712.199996948242},""timestamp"":6712.299995422363},{""type"":""chart_hover"",""data"":{""x"":635,""y"":525,""timestamp"":6728.900001525879},""timestamp"":6728.900001525879},{""type"":""chart_hover"",""data"":{""x"":635,""y"":528,""timestamp"":6745.400001525879},""timestamp"":6745.5},{""type"":""chart_hover"",""data"":{""x"":636,""y"":530,""timestamp"":6762.099998474121},""timestamp"":6762.099998474121},{""type"":""chart_hover"",""data"":{""x"":636,""y"":531,""timestamp"":6778.699996948242},""timestamp"":6778.699996948242},{""type"":""chart_hover"",""data"":{""x"":637,""y"":532,""timestamp"":6795.299995422363},""timestamp"":6795.299995422363},{""type"":""chart_hover"",""data"":{""x"":637,""y"":534,""timestamp"":6811.900001525879},""timestamp"":6811.900001525879},{""type"":""chart_hover"",""data"":{""x"":637,""y"":535,""timestamp"":6828.699996948242},""timestamp"":6828.699996948242},{""type"":""chart_hover"",""data"":{""x"":637,""y"":536,""timestamp"":6845.199996948242},""timestamp"":6845.199996948242},{""type"":""chart_hover"",""data"":{""x"":637,""y"":538,""timestamp"":6861.799995422363},""timestamp"":6861.799995422363},{""type"":""chart_hover"",""data"":{""x"":637,""y"":539,""timestamp"":6878.299995422363},""timestamp"":6878.299995422363},{""type"":""chart_hover"",""data"":{""x"":638,""y"":540,""timestamp"":6895.699996948242},""timestamp"":6895.699996948242},{""type"":""chart_hover"",""data"":{""x"":639,""y"":540,""timestamp"":6912.299995422363},""timestamp"":6912.299995422363},{""type"":""chart_hover"",""data"":{""x"":640,""y"":544,""timestamp"":6962.699996948242},""timestamp"":6962.699996948242},{""type"":""chart_hover"",""data"":{""x"":640,""y"":545,""timestamp"":6980.099998474121},""timestamp"":6980.099998474121},{""type"":""chart_hover"",""data"":{""x"":641,""y"":546,""timestamp"":6994.599998474121},""timestamp"":6994.599998474121},{""type"":""chart_hover"",""data"":{""x"":641,""y"":548,""timestamp"":7044.599998474121},""timestamp"":7044.599998474121},{""type"":""chart_hover"",""data"":{""x"":641,""y"":549,""timestamp"":8720.799995422363},""timestamp"":8720.799995422363},{""type"":""chart_hover"",""data"":{""x"":641,""y"":550,""timestamp"":8732.699996948242},""timestamp"":8732.699996948242},{""type"":""chart_hover"",""data"":{""x"":642,""y"":550,""timestamp"":8745.5},""timestamp"":8745.5},{""type"":""chart_hover"",""data"":{""x"":643,""y"":551,""timestamp"":8766.299995422363},""timestamp"":8766.299995422363},{""type"":""chart_hover"",""data"":{""x"":643,""y"":552,""timestamp"":8774.099998474121},""timestamp"":8774.099998474121},{""type"":""chart_hover"",""data"":{""x"":644,""y"":552,""timestamp"":8790.099998474121},""timestamp"":8790.099998474121},{""type"":""chart_hover"",""data"":{""x"":644,""y"":553,""timestamp"":8806.5},""timestamp"":8806.599998474121},{""type"":""chart_hover"",""data"":{""x"":645,""y"":554,""timestamp"":8823.299995422363},""timestamp"":8823.299995422363},{""type"":""chart_hover"",""data"":{""x"":646,""y"":555,""timestamp"":8839.799995422363},""timestamp"":8839.799995422363},{""type"":""chart_hover"",""data"":{""x"":647,""y"":556,""timestamp"":8856.299995422363},""timestamp"":8856.299995422363},{""type"":""chart_hover"",""data"":{""x"":648,""y"":556,""timestamp"":8882.599998474121},""timestamp"":8882.599998474121},{""type"":""chart_hover"",""data"":{""x"":649,""y"":557,""timestamp"":8896.900001525879},""timestamp"":8896.900001525879},{""type"":""chart_hover"",""data"":{""x"":649,""y"":558,""timestamp"":8906.099998474121},""timestamp"":8906.099998474121},{""type"":""chart_hover"",""data"":{""x"":650,""y"":558,""timestamp"":8922.799995422363},""timestamp"":8922.799995422363},{""type"":""chart_hover"",""data"":{""x"":652,""y"":560,""timestamp"":8939.699996948242},""timestamp"":8939.699996948242},{""type"":""chart_hover"",""data"":{""x"":652,""y"":561,""timestamp"":8956.299995422363},""timestamp"":8956.299995422363},{""type"":""chart_hover"",""data"":{""x"":654,""y"":562,""timestamp"":8972.699996948242},""timestamp"":8972.699996948242},{""type"":""chart_hover"",""data"":{""x"":657,""y"":567,""timestamp"":9022.5},""timestamp"":9022.5},{""type"":""chart_hover"",""data"":{""x"":659,""y"":568,""timestamp"":9039.199996948242},""timestamp"":9039.199996948242},{""type"":""chart_hover"",""data"":{""x"":661,""y"":569,""timestamp"":9055.699996948242},""timestamp"":9055.699996948242},{""type"":""chart_hover"",""data"":{""x"":662,""y"":572,""timestamp"":9072.299995422363},""timestamp"":9072.299995422363},{""type"":""chart_hover"",""data"":{""x"":664,""y"":572,""timestamp"":9089.299995422363},""timestamp"":9089.299995422363},{""type"":""chart_hover"",""data"":{""x"":666,""y"":575,""timestamp"":9106},""timestamp"":9106},{""type"":""chart_hover"",""data"":{""x"":667,""y"":576,""timestamp"":9122.299995422363},""timestamp"":9122.299995422363},{""type"":""chart_hover"",""data"":{""x"":668,""y"":576,""timestamp"":9138.900001525879},""timestamp"":9138.900001525879},{""type"":""chart_hover"",""data"":{""x"":668,""y"":577,""timestamp"":9155.599998474121},""timestamp"":9155.599998474121},{""type"":""chart_hover"",""data"":{""x"":670,""y"":579,""timestamp"":9172.400001525879},""timestamp"":9172.400001525879},{""type"":""chart_hover"",""data"":{""x"":672,""y"":580,""timestamp"":9222.199996948242},""timestamp"":9222.199996948242},{""type"":""chart_hover"",""data"":{""x"":668,""y"":572,""timestamp"":9648.699996948242},""timestamp"":9648.699996948242},{""type"":""chart_hover"",""data"":{""x"":644,""y"":519,""timestamp"":9655.299995422363},""timestamp"":9655.299995422363},{""type"":""chart_hover"",""data"":{""x"":624,""y"":446,""timestamp"":9670.799995422363},""timestamp"":9670.799995422363},{""type"":""chart_hover"",""data"":{""x"":616,""y"":402,""timestamp"":9687.5},""timestamp"":9687.5},{""type"":""chart_hover"",""data"":{""x"":616,""y"":352,""timestamp"":9703.900001525879},""timestamp"":9703.900001525879},{""type"":""chart_hover"",""data"":{""x"":617,""y"":328,""timestamp"":9720.599998474121},""timestamp"":9720.599998474121},{""type"":""chart_hover"",""data"":{""x"":619,""y"":319,""timestamp"":9737.299995422363},""timestamp"":9737.299995422363},{""type"":""chart_hover"",""data"":{""x"":621,""y"":313,""timestamp"":9753.799995422363},""timestamp"":9753.799995422363},{""type"":""chart_hover"",""data"":{""x"":621,""y"":311,""timestamp"":10048.599998474121},""timestamp"":10048.599998474121},{""type"":""chart_hover"",""data"":{""x"":621,""y"":309,""timestamp"":10055.5},""timestamp"":10055.5},{""type"":""chart_hover"",""data"":{""x"":622,""y"":308,""timestamp"":10069.799995422363},""timestamp"":10069.799995422363},{""type"":""chart_hover"",""data"":{""x"":622,""y"":305,""timestamp"":10086.699996948242},""timestamp"":10086.699996948242},{""type"":""chart_hover"",""data"":{""x"":624,""y"":302,""timestamp"":10102.900001525879},""timestamp"":10102.900001525879},{""type"":""chart_hover"",""data"":{""x"":626,""y"":300,""timestamp"":10119.699996948242},""timestamp"":10119.699996948242},{""type"":""chart_hover"",""data"":{""x"":628,""y"":298,""timestamp"":10136.400001525879},""timestamp"":10136.400001525879},{""type"":""chart_hover"",""data"":{""x"":629,""y"":297,""timestamp"":10152.900001525879},""timestamp"":10152.900001525879},{""type"":""chart_hover"",""data"":{""x"":631,""y"":296,""timestamp"":10169.400001525879},""timestamp"":10169.400001525879},{""type"":""chart_hover"",""data"":{""x"":632,""y"":294,""timestamp"":10186},""timestamp"":10186},{""type"":""chart_hover"",""data"":{""x"":633,""y"":292,""timestamp"":10203},""timestamp"":10203},{""type"":""chart_hover"",""data"":{""x"":635,""y"":291,""timestamp"":10219.400001525879},""timestamp"":10219.400001525879},{""type"":""chart_hover"",""data"":{""x"":638,""y"":286,""timestamp"":10235.900001525879},""timestamp"":10235.900001525879},{""type"":""chart_hover"",""data"":{""x"":639,""y"":284,""timestamp"":10252.799995422363},""timestamp"":10252.799995422363},{""type"":""chart_hover"",""data"":{""x"":640,""y"":280,""timestamp"":10269.199996948242},""timestamp"":10269.199996948242},{""type"":""chart_hover"",""data"":{""x"":642,""y"":277,""timestamp"":10285.699996948242},""timestamp"":10285.699996948242},{""type"":""chart_hover"",""data"":{""x"":642,""y"":275,""timestamp"":10302.400001525879},""timestamp"":10302.400001525879},{""type"":""chart_hover"",""data"":{""x"":642,""y"":274,""timestamp"":10319.299995422363},""timestamp"":10319.299995422363},{""type"":""chart_hover"",""data"":{""x"":643,""y"":272,""timestamp"":10335.799995422363},""timestamp"":10335.799995422363},{""type"":""chart_hover"",""data"":{""x"":644,""y"":270,""timestamp"":10352.5},""timestamp"":10352.5},{""type"":""chart_hover"",""data"":{""x"":644,""y"":269,""timestamp"":10369.299995422363},""timestamp"":10369.299995422363},{""type"":""chart_hover"",""data"":{""x"":644,""y"":267,""timestamp"":10385.599998474121},""timestamp"":10385.599998474121},{""type"":""chart_hover"",""data"":{""x"":644,""y"":265,""timestamp"":10402.299995422363},""timestamp"":10402.299995422363},{""type"":""chart_hover"",""data"":{""x"":643,""y"":264,""timestamp"":10419.900001525879},""timestamp"":10419.900001525879},{""type"":""chart_hover"",""data"":{""x"":643,""y"":263,""timestamp"":10447.299995422363},""timestamp"":10447.299995422363},{""type"":""chart_hover"",""data"":{""x"":643,""y"":262,""timestamp"":10453.799995422363},""timestamp"":10453.799995422363},{""type"":""chart_hover"",""data"":{""x"":643,""y"":261,""timestamp"":10468.599998474121},""timestamp"":10468.599998474121},{""type"":""chart_hover"",""data"":{""x"":643,""y"":260,""timestamp"":10554.099998474121},""timestamp"":10554.099998474121},{""type"":""chart_hover"",""data"":{""x"":642,""y"":259,""timestamp"":10568.599998474121},""timestamp"":10568.599998474121},{""type"":""chart_hover"",""data"":{""x"":642,""y"":258,""timestamp"":10585.199996948242},""timestamp"":10585.199996948242},{""type"":""chart_hover"",""data"":{""x"":642,""y"":257,""timestamp"":10612.099998474121},""timestamp"":10612.099998474121},{""type"":""chart_hover"",""data"":{""x"":641,""y"":257,""timestamp"":10736.900001525879},""timestamp"":10736.900001525879},{""type"":""chart_click"",""data"":{""x"":641,""y"":257,""timestamp"":10965.799995422363},""timestamp"":10965.799995422363},{""type"":""chart_hover"",""data"":{""x"":641,""y"":262,""timestamp"":11324},""timestamp"":11324},{""type"":""chart_hover"",""data"":{""x"":642,""y"":270,""timestamp"":11334.299995422363},""timestamp"":11334.299995422363},{""type"":""chart_hover"",""data"":{""x"":643,""y"":288,""timestamp"":11349.900001525879},""timestamp"":11349.900001525879},{""type"":""chart_hover"",""data"":{""x"":644,""y"":300,""timestamp"":11366.799995422363},""timestamp"":11366.900001525879},{""type"":""chart_hover"",""data"":{""x"":645,""y"":312,""timestamp"":11382.799995422363},""timestamp"":11382.799995422363},{""type"":""chart_hover"",""data"":{""x"":645,""y"":318,""timestamp"":11399.5},""timestamp"":11399.5},{""type"":""chart_hover"",""data"":{""x"":645,""y"":333,""timestamp"":11415.900001525879},""timestamp"":11415.900001525879},{""type"":""chart_hover"",""data"":{""x"":645,""y"":344,""timestamp"":11432.599998474121},""timestamp"":11432.599998474121},{""type"":""chart_hover"",""data"":{""x"":645,""y"":348,""timestamp"":11449.599998474121},""timestamp"":11449.599998474121},{""type"":""chart_hover"",""data"":{""x"":645,""y"":357,""timestamp"":11467.900001525879},""timestamp"":11467.900001525879},{""type"":""chart_hover"",""data"":{""x"":645,""y"":367,""timestamp"":11483},""timestamp"":11483},{""type"":""chart_hover"",""data"":{""x"":645,""y"":368,""timestamp"":14027.099998474121},""timestamp"":14027.099998474121},{""type"":""chart_hover"",""data"":{""x"":645,""y"":371,""timestamp"":14042.5},""timestamp"":14042.599998474121},{""type"":""chart_hover"",""data"":{""x"":646,""y"":372,""timestamp"":14059},""timestamp"":14059.099998474121},{""type"":""chart_hover"",""data"":{""x"":647,""y"":375,""timestamp"":14075.699996948242},""timestamp"":14075.699996948242},{""type"":""chart_hover"",""data"":{""x"":648,""y"":382,""timestamp"":14125.199996948242},""timestamp"":14125.199996948242},{""type"":""chart_hover"",""data"":{""x"":650,""y"":386,""timestamp"":14142.199996948242},""timestamp"":14142.299995422363},{""type"":""chart_hover"",""data"":{""x"":652,""y"":390,""timestamp"":14158.5},""timestamp"":14158.5},{""type"":""chart_hover"",""data"":{""x"":652,""y"":391,""timestamp"":14175.099998474121},""timestamp"":14175.099998474121},{""type"":""chart_hover"",""data"":{""x"":652,""y"":393,""timestamp"":14191.699996948242},""timestamp"":14191.699996948242},{""type"":""chart_hover"",""data"":{""x"":653,""y"":395,""timestamp"":14208.400001525879},""timestamp"":14208.400001525879},{""type"":""chart_hover"",""data"":{""x"":653,""y"":397,""timestamp"":14225},""timestamp"":14225},{""type"":""chart_hover"",""data"":{""x"":654,""y"":397,""timestamp"":14242},""timestamp"":14242},{""type"":""chart_hover"",""data"":{""x"":655,""y"":399,""timestamp"":14258.299995422363},""timestamp"":14258.299995422363},{""type"":""chart_hover"",""data"":{""x"":655,""y"":400,""timestamp"":14275.099998474121},""timestamp"":14275.099998474121},{""type"":""chart_hover"",""data"":{""x"":655,""y"":401,""timestamp"":14292.599998474121},""timestamp"":14292.699996948242},{""type"":""chart_hover"",""data"":{""x"":655,""y"":403,""timestamp"":14341.5},""timestamp"":14341.5},{""type"":""chart_hover"",""data"":{""x"":655,""y"":404,""timestamp"":14945.199996948242},""timestamp"":14945.199996948242},{""type"":""chart_hover"",""data"":{""x"":655,""y"":405,""timestamp"":14958.799995422363},""timestamp"":14958.799995422363},{""type"":""chart_hover"",""data"":{""x"":655,""y"":409,""timestamp"":14974.099998474121},""timestamp"":14974.099998474121},{""type"":""chart_hover"",""data"":{""x"":655,""y"":412,""timestamp"":14989.699996948242},""timestamp"":14989.699996948242},{""type"":""chart_hover"",""data"":{""x"":655,""y"":416,""timestamp"":15006.199996948242},""timestamp"":15006.199996948242},{""type"":""chart_hover"",""data"":{""x"":654,""y"":417,""timestamp"":15023.099998474121},""timestamp"":15023.099998474121},{""type"":""chart_hover"",""data"":{""x"":654,""y"":421,""timestamp"":15039.400001525879},""timestamp"":15039.400001525879},{""type"":""chart_hover"",""data"":{""x"":654,""y"":424,""timestamp"":15056.199996948242},""timestamp"":15056.199996948242},{""type"":""chart_hover"",""data"":{""x"":654,""y"":427,""timestamp"":15072.699996948242},""timestamp"":15072.699996948242},{""type"":""chart_hover"",""data"":{""x"":654,""y"":428,""timestamp"":15089.299995422363},""timestamp"":15089.400001525879},{""type"":""chart_hover"",""data"":{""x"":654,""y"":430,""timestamp"":15106},""timestamp"":15106},{""type"":""chart_hover"",""data"":{""x"":654,""y"":432,""timestamp"":15122.599998474121},""timestamp"":15122.599998474121},{""type"":""chart_hover"",""data"":{""x"":654,""y"":438,""timestamp"":15172.599998474121},""timestamp"":15172.599998474121},{""type"":""chart_hover"",""data"":{""x"":654,""y"":439,""timestamp"":15188.900001525879},""timestamp"":15188.900001525879},{""type"":""chart_hover"",""data"":{""x"":654,""y"":440,""timestamp"":15205.5},""timestamp"":15205.5},{""type"":""chart_hover"",""data"":{""x"":654,""y"":441,""timestamp"":15222.400001525879},""timestamp"":15222.400001525879},{""type"":""chart_hover"",""data"":{""x"":654,""y"":442,""timestamp"":15239.199996948242},""timestamp"":15239.199996948242},{""type"":""chart_hover"",""data"":{""x"":654,""y"":443,""timestamp"":16065.699996948242},""timestamp"":16065.699996948242},{""type"":""chart_hover"",""data"":{""x"":654,""y"":444,""timestamp"":16072.599998474121},""timestamp"":16072.599998474121},{""type"":""chart_hover"",""data"":{""x"":654,""y"":447,""timestamp"":16086.5},""timestamp"":16086.5},{""type"":""chart_hover"",""data"":{""x"":653,""y"":448,""timestamp"":16103.099998474121},""timestamp"":16103.099998474121},{""type"":""chart_hover"",""data"":{""x"":653,""y"":451,""timestamp"":16119.900001525879},""timestamp"":16119.900001525879},{""type"":""chart_hover"",""data"":{""x"":653,""y"":452,""timestamp"":16136.5},""timestamp"":16136.5},{""type"":""chart_hover"",""data"":{""x"":653,""y"":453,""timestamp"":16167},""timestamp"":16167},{""type"":""chart_hover"",""data"":{""x"":653,""y"":454,""timestamp"":16171.900001525879},""timestamp"":16171.900001525879},{""type"":""chart_hover"",""data"":{""x"":653,""y"":456,""timestamp"":16186.199996948242},""timestamp"":16186.199996948242},{""type"":""chart_hover"",""data"":{""x"":653,""y"":460,""timestamp"":22195.799995422363},""timestamp"":22195.799995422363},{""type"":""chart_hover"",""data"":{""x"":656,""y"":466,""timestamp"":22205.199996948242},""timestamp"":22205.199996948242},{""type"":""chart_leave"",""data"":{""timestamp"":22220},""timestamp"":22220},{""type"":""chart_enter"",""data"":{""timestamp"":32524.799995422363},""timestamp"":32524.799995422363},{""type"":""chart_hover"",""data"":{""x"":435,""y"":527,""timestamp"":32524.799995422363},""timestamp"":32524.799995422363},{""type"":""chart_hover"",""data"":{""x"":448,""y"":504,""timestamp"":32542},""timestamp"":32542},{""type"":""chart_hover"",""data"":{""x"":454,""y"":492,""timestamp"":32558.299995422363},""timestamp"":32558.40000152588},{""type"":""chart_hover"",""data"":{""x"":457,""y"":486,""timestamp"":32575.5},""timestamp"":32575.5},{""type"":""chart_hover"",""data"":{""x"":464,""y"":471,""timestamp"":32591.299995422363},""timestamp"":32591.299995422363},{""type"":""chart_hover"",""data"":{""x"":466,""y"":467,""timestamp"":32608.699996948242},""timestamp"":32608.699996948242},{""type"":""chart_hover"",""data"":{""x"":467,""y"":466,""timestamp"":32625.299995422363},""timestamp"":32625.299995422363},{""type"":""chart_hover"",""data"":{""x"":472,""y"":456,""timestamp"":32674.799995422363},""timestamp"":32674.799995422363},{""type"":""chart_hover"",""data"":{""x"":473,""y"":455,""timestamp"":32691.5},""timestamp"":32691.5},{""type"":""chart_hover"",""data"":{""x"":473,""y"":454,""timestamp"":32708.5},""timestamp"":32708.5},{""type"":""chart_hover"",""data"":{""x"":475,""y"":452,""timestamp"":32724.699996948242},""timestamp"":32724.699996948242},{""type"":""chart_hover"",""data"":{""x"":478,""y"":448,""timestamp"":32741.199996948242},""timestamp"":32741.199996948242},{""type"":""chart_hover"",""data"":{""x"":492,""y"":429,""timestamp"":32758.40000152588},""timestamp"":32758.40000152588},{""type"":""chart_hover"",""data"":{""x"":520,""y"":390,""timestamp"":32774.59999847412},""timestamp"":32774.59999847412},{""type"":""chart_hover"",""data"":{""x"":559,""y"":331,""timestamp"":32791},""timestamp"":32791},{""type"":""chart_hover"",""data"":{""x"":570,""y"":308,""timestamp"":32808.29999542236},""timestamp"":32808.29999542236},{""type"":""chart_hover"",""data"":{""x"":586,""y"":285,""timestamp"":32824.29999542236},""timestamp"":32824.29999542236},{""type"":""chart_hover"",""data"":{""x"":591,""y"":279,""timestamp"":32840.90000152588},""timestamp"":32840.90000152588},{""type"":""chart_hover"",""data"":{""x"":593,""y"":275,""timestamp"":32857.29999542236},""timestamp"":32857.29999542236},{""type"":""chart_hover"",""data"":{""x"":594,""y"":273,""timestamp"":32874},""timestamp"":32874},{""type"":""chart_hover"",""data"":{""x"":595,""y"":273,""timestamp"":32890.90000152588},""timestamp"":32890.90000152588},{""type"":""chart_hover"",""data"":{""x"":595,""y"":272,""timestamp"":32907.5},""timestamp"":32907.5},{""type"":""chart_hover"",""data"":{""x"":594,""y"":272,""timestamp"":33332.59999847412},""timestamp"":33332.59999847412},{""type"":""chart_hover"",""data"":{""x"":594,""y"":273,""timestamp"":33341.29999542236},""timestamp"":33341.29999542236},{""type"":""chart_hover"",""data"":{""x"":592,""y"":276,""timestamp"":33356.29999542236},""timestamp"":33356.29999542236},{""type"":""chart_hover"",""data"":{""x"":590,""y"":280,""timestamp"":33372.59999847412},""timestamp"":33372.59999847412},{""type"":""chart_hover"",""data"":{""x"":582,""y"":292,""timestamp"":33389.09999847412},""timestamp"":33389.09999847412},{""type"":""chart_hover"",""data"":{""x"":579,""y"":300,""timestamp"":33405.79999542236},""timestamp"":33405.79999542236},{""type"":""chart_hover"",""data"":{""x"":572,""y"":311,""timestamp"":33422.29999542236},""timestamp"":33422.29999542236},{""type"":""chart_hover"",""data"":{""x"":569,""y"":314,""timestamp"":33439.09999847412},""timestamp"":33439.09999847412},{""type"":""chart_hover"",""data"":{""x"":564,""y"":322,""timestamp"":33455.59999847412},""timestamp"":33455.59999847412},{""type"":""chart_hover"",""data"":{""x"":559,""y"":328,""timestamp"":33472.19999694824},""timestamp"":33472.19999694824},{""type"":""chart_hover"",""data"":{""x"":556,""y"":333,""timestamp"":33488.90000152588},""timestamp"":33488.90000152588},{""type"":""chart_hover"",""data"":{""x"":550,""y"":340,""timestamp"":33505.40000152588},""timestamp"":33505.40000152588},{""type"":""chart_hover"",""data"":{""x"":548,""y"":343,""timestamp"":33522.40000152588},""timestamp"":33522.40000152588},{""type"":""chart_hover"",""data"":{""x"":546,""y"":345,""timestamp"":33538.69999694824},""timestamp"":33538.69999694824},{""type"":""chart_hover"",""data"":{""x"":544,""y"":347,""timestamp"":33556.09999847412},""timestamp"":33556.09999847412},{""type"":""chart_hover"",""data"":{""x"":544,""y"":348,""timestamp"":33572.09999847412},""timestamp"":33572.09999847412},{""type"":""chart_hover"",""data"":{""x"":542,""y"":349,""timestamp"":33588.59999847412},""timestamp"":33588.59999847412},{""type"":""chart_hover"",""data"":{""x"":541,""y"":350,""timestamp"":33605.40000152588},""timestamp"":33605.40000152588},{""type"":""chart_hover"",""data"":{""x"":540,""y"":351,""timestamp"":33622.69999694824},""timestamp"":33622.69999694824},{""type"":""chart_hover"",""data"":{""x"":540,""y"":352,""timestamp"":33638.90000152588},""timestamp"":33638.90000152588},{""type"":""chart_hover"",""data"":{""x"":541,""y"":351,""timestamp"":38860.59999847412},""timestamp"":38860.59999847412},{""type"":""chart_hover"",""data"":{""x"":544,""y"":349,""timestamp"":38876.29999542236},""timestamp"":38876.29999542236},{""type"":""chart_hover"",""data"":{""x"":551,""y"":346,""timestamp"":38890.59999847412},""timestamp"":38890.59999847412},{""type"":""chart_hover"",""data"":{""x"":556,""y"":343,""timestamp"":38907.29999542236},""timestamp"":38907.29999542236},{""type"":""chart_hover"",""data"":{""x"":564,""y"":340,""timestamp"":38924},""timestamp"":38924},{""type"":""chart_hover"",""data"":{""x"":574,""y"":336,""timestamp"":38940.59999847412},""timestamp"":38940.59999847412},{""type"":""chart_hover"",""data"":{""x"":580,""y"":335,""timestamp"":38957.69999694824},""timestamp"":38957.69999694824},{""type"":""chart_hover"",""data"":{""x"":587,""y"":332,""timestamp"":38974.09999847412},""timestamp"":38974.09999847412},{""type"":""chart_hover"",""data"":{""x"":592,""y"":332,""timestamp"":38990.90000152588},""timestamp"":38990.90000152588},{""type"":""chart_hover"",""data"":{""x"":597,""y"":331,""timestamp"":39007.09999847412},""timestamp"":39007.09999847412},{""type"":""chart_hover"",""data"":{""x"":600,""y"":331,""timestamp"":39023.69999694824},""timestamp"":39023.69999694824},{""type"":""chart_hover"",""data"":{""x"":603,""y"":331,""timestamp"":39040.40000152588},""timestamp"":39040.40000152588},{""type"":""chart_hover"",""data"":{""x"":604,""y"":331,""timestamp"":39057.29999542236},""timestamp"":39057.29999542236},{""type"":""chart_hover"",""data"":{""x"":606,""y"":331,""timestamp"":39073.79999542236},""timestamp"":39073.79999542236},{""type"":""chart_hover"",""data"":{""x"":608,""y"":331,""timestamp"":39090.19999694824},""timestamp"":39090.19999694824},{""type"":""chart_hover"",""data"":{""x"":608,""y"":332,""timestamp"":39469.5},""timestamp"":39469.5},{""type"":""chart_hover"",""data"":{""x"":610,""y"":336,""timestamp"":39476},""timestamp"":39476},{""type"":""chart_hover"",""data"":{""x"":613,""y"":344,""timestamp"":39489.29999542236},""timestamp"":39489.29999542236},{""type"":""chart_hover"",""data"":{""x"":616,""y"":352,""timestamp"":39505.69999694824},""timestamp"":39505.69999694824},{""type"":""chart_hover"",""data"":{""x"":620,""y"":360,""timestamp"":39522.29999542236},""timestamp"":39522.40000152588},{""type"":""chart_hover"",""data"":{""x"":622,""y"":368,""timestamp"":39539.19999694824},""timestamp"":39539.19999694824},{""type"":""chart_hover"",""data"":{""x"":624,""y"":374,""timestamp"":39556.09999847412},""timestamp"":39556.09999847412},{""type"":""chart_hover"",""data"":{""x"":627,""y"":380,""timestamp"":39572.19999694824},""timestamp"":39572.19999694824},{""type"":""chart_hover"",""data"":{""x"":628,""y"":383,""timestamp"":39588.90000152588},""timestamp"":39588.90000152588},{""type"":""chart_hover"",""data"":{""x"":632,""y"":396,""timestamp"":39605.5},""timestamp"":39605.5},{""type"":""chart_hover"",""data"":{""x"":635,""y"":402,""timestamp"":39622},""timestamp"":39622},{""type"":""chart_hover"",""data"":{""x"":637,""y"":408,""timestamp"":39638.69999694824},""timestamp"":39638.69999694824},{""type"":""chart_hover"",""data"":{""x"":640,""y"":420,""timestamp"":39655.19999694824},""timestamp"":39655.19999694824},{""type"":""chart_hover"",""data"":{""x"":641,""y"":423,""timestamp"":39672},""timestamp"":39672},{""type"":""chart_hover"",""data"":{""x"":642,""y"":429,""timestamp"":39688.5},""timestamp"":39688.5},{""type"":""chart_hover"",""data"":{""x"":643,""y"":432,""timestamp"":39705.40000152588},""timestamp"":39705.40000152588},{""type"":""chart_hover"",""data"":{""x"":643,""y"":433,""timestamp"":39721.69999694824},""timestamp"":39721.69999694824},{""type"":""chart_hover"",""data"":{""x"":643,""y"":435,""timestamp"":39738.29999542236},""timestamp"":39738.29999542236},{""type"":""chart_hover"",""data"":{""x"":643,""y"":436,""timestamp"":39754.90000152588},""timestamp"":39754.90000152588},{""type"":""chart_hover"",""data"":{""x"":643,""y"":438,""timestamp"":40138.09999847412},""timestamp"":40138.09999847412},{""type"":""chart_hover"",""data"":{""x"":643,""y"":440,""timestamp"":40153.90000152588},""timestamp"":40153.90000152588},{""type"":""chart_hover"",""data"":{""x"":643,""y"":444,""timestamp"":40170.69999694824},""timestamp"":40170.69999694824},{""type"":""chart_hover"",""data"":{""x"":643,""y"":452,""timestamp"":40187.19999694824},""timestamp"":40187.19999694824},{""type"":""chart_hover"",""data"":{""x"":644,""y"":456,""timestamp"":40204.19999694824},""timestamp"":40204.19999694824},{""type"":""chart_hover"",""data"":{""x"":644,""y"":462,""timestamp"":40220.59999847412},""timestamp"":40220.59999847412},{""type"":""chart_hover"",""data"":{""x"":644,""y"":464,""timestamp"":40237.40000152588},""timestamp"":40237.40000152588},{""type"":""chart_hover"",""data"":{""x"":644,""y"":468,""timestamp"":40253.5},""timestamp"":40253.5},{""type"":""chart_hover"",""data"":{""x"":645,""y"":468,""timestamp"":40270.40000152588},""timestamp"":40270.40000152588},{""type"":""chart_leave"",""data"":{""timestamp"":40286.90000152588},""timestamp"":40286.90000152588}]",0.0-7.0,66573c811d17794993965781,,1,,,false,80,,,,1,58066.79999542236,,,,,,518392,,297,,,City A,7,prediction-task,,,,,,true
84,93,1,,,condition_7_buggy,Buggy Control,Certain,6,,broken_interactions,,443,"[{""type"":""chart_enter"",""data"":{""timestamp"":1781.900001525879},""timestamp"":1781.900001525879},{""type"":""chart_hover"",""data"":{""x"":456,""y"":579,""timestamp"":3080.599998474121},""timestamp"":3080.599998474121},{""type"":""chart_hover"",""data"":{""x"":490,""y"":576,""timestamp"":3097.599998474121},""timestamp"":3097.599998474121},{""type"":""chart_hover"",""data"":{""x"":526,""y"":576,""timestamp"":3111.099998474121},""timestamp"":3111.099998474121},{""type"":""chart_hover"",""data"":{""x"":562,""y"":576,""timestamp"":3128.099998474121},""timestamp"":3128.099998474121},{""type"":""chart_hover"",""data"":{""x"":590,""y"":574,""timestamp"":3144.699996948242},""timestamp"":3144.699996948242},{""type"":""chart_hover"",""data"":{""x"":615,""y"":574,""timestamp"":3161.099998474121},""timestamp"":3161.099998474121},{""type"":""chart_hover"",""data"":{""x"":635,""y"":574,""timestamp"":3177.699996948242},""timestamp"":3177.699996948242},{""type"":""chart_hover"",""data"":{""x"":658,""y"":574,""timestamp"":3194.5},""timestamp"":3194.5},{""type"":""chart_hover"",""data"":{""x"":668,""y"":573,""timestamp"":3210.900001525879},""timestamp"":3210.900001525879},{""type"":""chart_hover"",""data"":{""x"":674,""y"":573,""timestamp"":3227.7999954223633},""timestamp"":3227.7999954223633},{""type"":""chart_hover"",""data"":{""x"":676,""y"":573,""timestamp"":3244.2999954223633},""timestamp"":3244.2999954223633},{""type"":""chart_hover"",""data"":{""x"":679,""y"":573,""timestamp"":3261},""timestamp"":3261},{""type"":""chart_hover"",""data"":{""x"":677,""y"":582,""timestamp"":3612.400001525879},""timestamp"":3612.400001525879},{""type"":""chart_leave"",""data"":{""timestamp"":3628.599998474121},""timestamp"":3628.599998474121},{""type"":""chart_enter"",""data"":{""timestamp"":16425.199996948242},""timestamp"":16425.199996948242},{""type"":""chart_hover"",""data"":{""x"":737,""y"":501,""timestamp"":16425.199996948242},""timestamp"":16425.199996948242},{""type"":""chart_hover"",""data"":{""x"":748,""y"":477,""timestamp"":16442.09999847412},""timestamp"":16442.09999847412},{""type"":""chart_hover"",""data"":{""x"":764,""y"":456,""timestamp"":16458.59999847412},""timestamp"":16458.59999847412},{""type"":""chart_hover"",""data"":{""x"":769,""y"":449,""timestamp"":16474.90000152588},""timestamp"":16474.90000152588},{""type"":""chart_hover"",""data"":{""x"":773,""y"":445,""timestamp"":16491.09999847412},""timestamp"":16491.09999847412},{""type"":""chart_hover"",""data"":{""x"":773,""y"":444,""timestamp"":16508.09999847412},""timestamp"":16508.09999847412},{""type"":""chart_hover"",""data"":{""x"":781,""y"":428,""timestamp"":16740.799995422363},""timestamp"":16740.90000152588},{""type"":""chart_hover"",""data"":{""x"":819,""y"":347,""timestamp"":16757.09999847412},""timestamp"":16757.09999847412},{""type"":""chart_hover"",""data"":{""x"":834,""y"":316,""timestamp"":16774.299995422363},""timestamp"":16774.299995422363},{""type"":""chart_hover"",""data"":{""x"":838,""y"":306,""timestamp"":16790.799995422363},""timestamp"":16790.799995422363},{""type"":""chart_hover"",""data"":{""x"":860,""y"":251,""timestamp"":16816.09999847412},""timestamp"":16816.09999847412},{""type"":""chart_hover"",""data"":{""x"":865,""y"":240,""timestamp"":16823.90000152588},""timestamp"":16823.90000152588},{""type"":""chart_hover"",""data"":{""x"":880,""y"":216,""timestamp"":16840.40000152588},""timestamp"":16840.40000152588},{""type"":""chart_hover"",""data"":{""x"":892,""y"":198,""timestamp"":16857.09999847412},""timestamp"":16857.09999847412},{""type"":""chart_hover"",""data"":{""x"":908,""y"":176,""timestamp"":16875.59999847412},""timestamp"":16875.59999847412},{""type"":""chart_hover"",""data"":{""x"":916,""y"":165,""timestamp"":16890.09999847412},""timestamp"":16890.09999847412},{""type"":""chart_hover"",""data"":{""x"":925,""y"":155,""timestamp"":16907.59999847412},""timestamp"":16907.59999847412},{""type"":""chart_hover"",""data"":{""x"":929,""y"":150,""timestamp"":16923.40000152588},""timestamp"":16923.40000152588},{""type"":""chart_hover"",""data"":{""x"":931,""y"":148,""timestamp"":16940},""timestamp"":16940},{""type"":""chart_hover"",""data"":{""x"":933,""y"":148,""timestamp"":16956.699996948242},""timestamp"":16956.699996948242},{""type"":""chart_hover"",""data"":{""x"":933,""y"":147,""timestamp"":16973.40000152588},""timestamp"":16973.40000152588},{""type"":""chart_hover"",""data"":{""x"":934,""y"":146,""timestamp"":16989.90000152588},""timestamp"":16989.90000152588},{""type"":""chart_hover"",""data"":{""x"":935,""y"":146,""timestamp"":17006.5},""timestamp"":17006.5},{""type"":""chart_hover"",""data"":{""x"":936,""y"":145,""timestamp"":17023.299995422363},""timestamp"":17023.299995422363},{""type"":""chart_hover"",""data"":{""x"":936,""y"":144,""timestamp"":17039.59999847412},""timestamp"":17039.59999847412},{""type"":""chart_hover"",""data"":{""x"":937,""y"":144,""timestamp"":17073.40000152588},""timestamp"":17073.40000152588},{""type"":""chart_hover"",""data"":{""x"":938,""y"":144,""timestamp"":17106.5},""timestamp"":17106.5},{""type"":""chart_hover"",""data"":{""x"":940,""y"":145,""timestamp"":17139.699996948242},""timestamp"":17139.699996948242},{""type"":""chart_hover"",""data"":{""x"":939,""y"":155,""timestamp"":17156.299995422363},""timestamp"":17156.299995422363},{""type"":""chart_hover"",""data"":{""x"":935,""y"":168,""timestamp"":17173.199996948242},""timestamp"":17173.199996948242},{""type"":""chart_hover"",""data"":{""x"":925,""y"":187,""timestamp"":17189.5},""timestamp"":17189.5},{""type"":""chart_hover"",""data"":{""x"":922,""y"":192,""timestamp"":17206},""timestamp"":17206},{""type"":""chart_hover"",""data"":{""x"":920,""y"":195,""timestamp"":17222.90000152588},""timestamp"":17222.90000152588},{""type"":""chart_hover"",""data"":{""x"":917,""y"":196,""timestamp"":17239.5},""timestamp"":17239.5},{""type"":""chart_hover"",""data"":{""x"":915,""y"":199,""timestamp"":17255.699996948242},""timestamp"":17255.699996948242},{""type"":""chart_hover"",""data"":{""x"":913,""y"":200,""timestamp"":17272.40000152588},""timestamp"":17272.40000152588},{""type"":""chart_hover"",""data"":{""x"":912,""y"":200,""timestamp"":17289.09999847412},""timestamp"":17289.09999847412},{""type"":""chart_hover"",""data"":{""x"":907,""y"":201,""timestamp"":17338.90000152588},""timestamp"":17338.90000152588},{""type"":""chart_hover"",""data"":{""x"":906,""y"":201,""timestamp"":17355.699996948242},""timestamp"":17355.699996948242},{""type"":""chart_hover"",""data"":{""x"":904,""y"":201,""timestamp"":17372.09999847412},""timestamp"":17372.09999847412},{""type"":""chart_hover"",""data"":{""x"":903,""y"":201,""timestamp"":17388.799995422363},""timestamp"":17388.799995422363},{""type"":""chart_hover"",""data"":{""x"":901,""y"":201,""timestamp"":17405.299995422363},""timestamp"":17405.299995422363},{""type"":""chart_hover"",""data"":{""x"":900,""y"":201,""timestamp"":17422.40000152588},""timestamp"":17422.40000152588},{""type"":""chart_hover"",""data"":{""x"":900,""y"":200,""timestamp"":17438.699996948242},""timestamp"":17438.699996948242},{""type"":""chart_hover"",""data"":{""x"":900,""y"":197,""timestamp"":17472.699996948242},""timestamp"":17472.699996948242},{""type"":""chart_hover"",""data"":{""x"":903,""y"":196,""timestamp"":17488.799995422363},""timestamp"":17488.799995422363},{""type"":""chart_hover"",""data"":{""x"":908,""y"":195,""timestamp"":17505.59999847412},""timestamp"":17505.59999847412},{""type"":""chart_hover"",""data"":{""x"":909,""y"":194,""timestamp"":17521.699996948242},""timestamp"":17521.699996948242},{""type"":""chart_hover"",""data"":{""x"":915,""y"":193,""timestamp"":17538.59999847412},""timestamp"":17538.59999847412},{""type"":""chart_hover"",""data"":{""x"":916,""y"":193,""timestamp"":17555.299995422363},""timestamp"":17555.299995422363},{""type"":""chart_hover"",""data"":{""x"":918,""y"":193,""timestamp"":17571.5},""timestamp"":17571.5},{""type"":""chart_hover"",""data"":{""x"":920,""y"":193,""timestamp"":17588.199996948242},""timestamp"":17588.199996948242},{""type"":""chart_hover"",""data"":{""x"":921,""y"":193,""timestamp"":17621.699996948242},""timestamp"":17621.699996948242},{""type"":""chart_hover"",""data"":{""x"":922,""y"":193,""timestamp"":17638.299995422363},""timestamp"":17638.299995422363},{""type"":""chart_hover"",""data"":{""x"":924,""y"":193,""timestamp"":17654.90000152588},""timestamp"":17654.90000152588},{""type"":""chart_hover"",""data"":{""x"":925,""y"":193,""timestamp"":17721.40000152588},""timestamp"":17721.40000152588},{""type"":""chart_hover"",""data"":{""x"":926,""y"":193,""timestamp"":17738.09999847412},""timestamp"":17738.09999847412},{""type"":""chart_hover"",""data"":{""x"":927,""y"":193,""timestamp"":17788.299995422363},""timestamp"":17788.299995422363},{""type"":""chart_hover"",""data"":{""x"":927,""y"":192,""timestamp"":17904.799995422363},""timestamp"":17904.799995422363},{""type"":""chart_hover"",""data"":{""x"":927,""y"":191,""timestamp"":17937.299995422363},""timestamp"":17937.299995422363},{""type"":""chart_hover"",""data"":{""x"":927,""y"":190,""timestamp"":18809.799995422363},""timestamp"":18809.799995422363},{""type"":""chart_hover"",""data"":{""x"":930,""y"":190,""timestamp"":18821.199996948242},""timestamp"":18821.199996948242},{""type"":""chart_hover"",""data"":{""x"":931,""y"":189,""timestamp"":18835.09999847412},""timestamp"":18835.09999847412},{""type"":""chart_hover"",""data"":{""x"":933,""y"":188,""timestamp"":18851.59999847412},""timestamp"":18851.59999847412},{""type"":""chart_hover"",""data"":{""x"":945,""y"":186,""timestamp"":18875.09999847412},""timestamp"":18875.09999847412},{""type"":""chart_hover"",""data"":{""x"":948,""y"":185,""timestamp"":18884.5},""timestamp"":18884.5},{""type"":""chart_hover"",""data"":{""x"":949,""y"":184,""timestamp"":18901.199996948242},""timestamp"":18901.199996948242},{""type"":""chart_hover"",""data"":{""x"":953,""y"":184,""timestamp"":18918.699996948242},""timestamp"":18918.699996948242},{""type"":""chart_hover"",""data"":{""x"":955,""y"":184,""timestamp"":18934.699996948242},""timestamp"":18934.699996948242},{""type"":""chart_hover"",""data"":{""x"":956,""y"":184,""timestamp"":18951.09999847412},""timestamp"":18951.09999847412},{""type"":""chart_hover"",""data"":{""x"":960,""y"":184,""timestamp"":18967.699996948242},""timestamp"":18967.699996948242},{""type"":""chart_hover"",""data"":{""x"":961,""y"":184,""timestamp"":18984.299995422363},""timestamp"":18984.299995422363},{""type"":""chart_hover"",""data"":{""x"":964,""y"":184,""timestamp"":19000.90000152588},""timestamp"":19000.90000152588},{""type"":""chart_hover"",""data"":{""x"":965,""y"":184,""timestamp"":19018},""timestamp"":19018},{""type"":""chart_hover"",""data"":{""x"":968,""y"":184,""timestamp"":19034.5},""timestamp"":19034.5},{""type"":""chart_hover"",""data"":{""x"":969,""y"":184,""timestamp"":19050.90000152588},""timestamp"":19050.90000152588},{""type"":""chart_hover"",""data"":{""x"":972,""y"":184,""timestamp"":19067.40000152588},""timestamp"":19067.40000152588},{""type"":""chart_hover"",""data"":{""x"":974,""y"":184,""timestamp"":19084.09999847412},""timestamp"":19084.09999847412},{""type"":""chart_hover"",""data"":{""x"":976,""y"":184,""timestamp"":19100.699996948242},""timestamp"":19100.699996948242},{""type"":""chart_hover"",""data"":{""x"":977,""y"":184,""timestamp"":19117.299995422363},""timestamp"":19117.299995422363},{""type"":""chart_hover"",""data"":{""x"":978,""y"":184,""timestamp"":19134.09999847412},""timestamp"":19134.09999847412},{""type"":""chart_hover"",""data"":{""x"":980,""y"":184,""timestamp"":19150.5},""timestamp"":19150.59999847412},{""type"":""chart_hover"",""data"":{""x"":982,""y"":184,""timestamp"":19167.09999847412},""timestamp"":19167.09999847412},{""type"":""chart_hover"",""data"":{""x"":983,""y"":184,""timestamp"":19184.09999847412},""timestamp"":19184.09999847412},{""type"":""chart_hover"",""data"":{""x"":984,""y"":183,""timestamp"":19200.5},""timestamp"":19200.5},{""type"":""chart_hover"",""data"":{""x"":987,""y"":182,""timestamp"":19217.199996948242},""timestamp"":19217.199996948242},{""type"":""chart_hover"",""data"":{""x"":988,""y"":182,""timestamp"":19233.59999847412},""timestamp"":19233.59999847412},{""type"":""chart_hover"",""data"":{""x"":990,""y"":182,""timestamp"":19250.59999847412},""timestamp"":19250.59999847412},{""type"":""chart_hover"",""data"":{""x"":991,""y"":181,""timestamp"":19267},""timestamp"":19267},{""type"":""chart_hover"",""data"":{""x"":992,""y"":181,""timestamp"":19283.799995422363},""timestamp"":19283.799995422363},{""type"":""chart_hover"",""data"":{""x"":993,""y"":181,""timestamp"":19300.699996948242},""timestamp"":19300.699996948242},{""type"":""chart_hover"",""data"":{""x"":994,""y"":181,""timestamp"":19319.799995422363},""timestamp"":19319.799995422363},{""type"":""chart_hover"",""data"":{""x"":995,""y"":181,""timestamp"":19333.59999847412},""timestamp"":19333.59999847412},{""type"":""chart_hover"",""data"":{""x"":996,""y"":181,""timestamp"":19383.09999847412},""timestamp"":19383.199996948242},{""type"":""chart_hover"",""data"":{""x"":997,""y"":181,""timestamp"":19400.09999847412},""timestamp"":19400.09999847412},{""type"":""chart_hover"",""data"":{""x"":998,""y"":181,""timestamp"":19433.09999847412},""timestamp"":19433.09999847412},{""type"":""chart_hover"",""data"":{""x"":999,""y"":181,""timestamp"":19453.40000152588},""timestamp"":19453.40000152588},{""type"":""chart_hover"",""data"":{""x"":999,""y"":182,""timestamp"":19639.90000152588},""timestamp"":19639.90000152588},{""type"":""chart_hover"",""data"":{""x"":999,""y"":183,""timestamp"":19682.699996948242},""timestamp"":19682.699996948242},{""type"":""chart_hover"",""data"":{""x"":999,""y"":184,""timestamp"":19699},""timestamp"":19699},{""type"":""chart_click"",""data"":{""x"":999,""y"":184,""timestamp"":20135.59999847412},""timestamp"":20135.59999847412},{""type"":""chart_hover"",""data"":{""x"":1000,""y"":184,""timestamp"":20890.40000152588},""timestamp"":20890.40000152588},{""type"":""chart_hover"",""data"":{""x"":1002,""y"":184,""timestamp"":20933.5},""timestamp"":20933.5},{""type"":""chart_hover"",""data"":{""x"":1003,""y"":184,""timestamp"":20946},""timestamp"":20946},{""type"":""chart_hover"",""data"":{""x"":1004,""y"":184,""timestamp"":20962.40000152588},""timestamp"":20962.40000152588},{""type"":""chart_hover"",""data"":{""x"":1005,""y"":184,""timestamp"":20983.699996948242},""timestamp"":20983.699996948242},{""type"":""chart_hover"",""data"":{""x"":1004,""y"":184,""timestamp"":21136.299995422363},""timestamp"":21136.299995422363},{""type"":""chart_hover"",""data"":{""x"":1003,""y"":184,""timestamp"":21155.09999847412},""timestamp"":21155.09999847412},{""type"":""chart_hover"",""data"":{""x"":1000,""y"":184,""timestamp"":21162.199996948242},""timestamp"":21162.199996948242},{""type"":""chart_hover"",""data"":{""x"":998,""y"":184,""timestamp"":21178.299995422363},""timestamp"":21178.299995422363},{""type"":""chart_hover"",""data"":{""x"":992,""y"":184,""timestamp"":21195.09999847412},""timestamp"":21195.09999847412},{""type"":""chart_hover"",""data"":{""x"":984,""y"":184,""timestamp"":21211.59999847412},""timestamp"":21211.59999847412},{""type"":""chart_hover"",""data"":{""x"":979,""y"":184,""timestamp"":21228.5},""timestamp"":21228.5},{""type"":""chart_hover"",""data"":{""x"":969,""y"":186,""timestamp"":21244.699996948242},""timestamp"":21244.699996948242},{""type"":""chart_hover"",""data"":{""x"":962,""y"":188,""timestamp"":21261.40000152588},""timestamp"":21261.40000152588},{""type"":""chart_hover"",""data"":{""x"":956,""y"":188,""timestamp"":21278.09999847412},""timestamp"":21278.09999847412},{""type"":""chart_hover"",""data"":{""x"":943,""y"":191,""timestamp"":21294.90000152588},""timestamp"":21294.90000152588},{""type"":""chart_hover"",""data"":{""x"":936,""y"":192,""timestamp"":21311.699996948242},""timestamp"":21311.699996948242},{""type"":""chart_hover"",""data"":{""x"":932,""y"":192,""timestamp"":21327.799995422363},""timestamp"":21327.799995422363},{""type"":""chart_hover"",""data"":{""x"":928,""y"":192,""timestamp"":21344.799995422363},""timestamp"":21344.799995422363},{""type"":""chart_hover"",""data"":{""x"":925,""y"":193,""timestamp"":21361.09999847412},""timestamp"":21361.09999847412},{""type"":""chart_hover"",""data"":{""x"":922,""y"":193,""timestamp"":21378},""timestamp"":21378},{""type"":""chart_hover"",""data"":{""x"":919,""y"":193,""timestamp"":21394.40000152588},""timestamp"":21394.40000152588},{""type"":""chart_hover"",""data"":{""x"":916,""y"":193,""timestamp"":21411.09999847412},""timestamp"":21411.09999847412},{""type"":""chart_hover"",""data"":{""x"":908,""y"":193,""timestamp"":21444.799995422363},""timestamp"":21444.799995422363},{""type"":""chart_hover"",""data"":{""x"":902,""y"":193,""timestamp"":21461},""timestamp"":21461},{""type"":""chart_hover"",""data"":{""x"":899,""y"":193,""timestamp"":21477.59999847412},""timestamp"":21477.59999847412},{""type"":""chart_hover"",""data"":{""x"":891,""y"":193,""timestamp"":21494.199996948242},""timestamp"":21494.199996948242},{""type"":""chart_hover"",""data"":{""x"":885,""y"":193,""timestamp"":21510.799995422363},""timestamp"":21510.799995422363},{""type"":""chart_hover"",""data"":{""x"":875,""y"":193,""timestamp"":21527.299995422363},""timestamp"":21527.299995422363},{""type"":""chart_hover"",""data"":{""x"":868,""y"":193,""timestamp"":21544.5},""timestamp"":21544.5},{""type"":""chart_hover"",""data"":{""x"":864,""y"":192,""timestamp"":21560.699996948242},""timestamp"":21560.699996948242},{""type"":""chart_hover"",""data"":{""x"":859,""y"":192,""timestamp"":21577.40000152588},""timestamp"":21577.40000152588},{""type"":""chart_hover"",""data"":{""x"":855,""y"":192,""timestamp"":21594.09999847412},""timestamp"":21594.09999847412},{""type"":""chart_hover"",""data"":{""x"":851,""y"":192,""timestamp"":21610.699996948242},""timestamp"":21610.699996948242},{""type"":""chart_hover"",""data"":{""x"":846,""y"":191,""timestamp"":21627.299995422363},""timestamp"":21627.299995422363},{""type"":""chart_hover"",""data"":{""x"":840,""y"":190,""timestamp"":21643.799995422363},""timestamp"":21643.799995422363},{""type"":""chart_hover"",""data"":{""x"":835,""y"":189,""timestamp"":21660.59999847412},""timestamp"":21660.59999847412},{""type"":""chart_hover"",""data"":{""x"":828,""y"":188,""timestamp"":21677},""timestamp"":21677},{""type"":""chart_hover"",""data"":{""x"":823,""y"":188,""timestamp"":21693.699996948242},""timestamp"":21693.699996948242},{""type"":""chart_hover"",""data"":{""x"":818,""y"":187,""timestamp"":21710.199996948242},""timestamp"":21710.199996948242},{""type"":""chart_hover"",""data"":{""x"":813,""y"":186,""timestamp"":21726.799995422363},""timestamp"":21726.799995422363},{""type"":""chart_hover"",""data"":{""x"":809,""y"":186,""timestamp"":21743.5},""timestamp"":21743.5},{""type"":""chart_hover"",""data"":{""x"":805,""y"":186,""timestamp"":21760},""timestamp"":21760},{""type"":""chart_hover"",""data"":{""x"":804,""y"":186,""timestamp"":21776.90000152588},""timestamp"":21776.90000152588},{""type"":""chart_hover"",""data"":{""x"":802,""y"":186,""timestamp"":21793.299995422363},""timestamp"":21793.299995422363},{""type"":""chart_hover"",""data"":{""x"":800,""y"":186,""timestamp"":21809.90000152588},""timestamp"":21809.90000152588},{""type"":""chart_hover"",""data"":{""x"":799,""y"":186,""timestamp"":21826.699996948242},""timestamp"":21826.699996948242},{""type"":""chart_hover"",""data"":{""x"":797,""y"":186,""timestamp"":21843.299995422363},""timestamp"":21843.299995422363},{""type"":""chart_hover"",""data"":{""x"":796,""y"":186,""timestamp"":21860.40000152588},""timestamp"":21860.40000152588},{""type"":""chart_hover"",""data"":{""x"":795,""y"":186,""timestamp"":21876.59999847412},""timestamp"":21876.59999847412},{""type"":""chart_hover"",""data"":{""x"":794,""y"":185,""timestamp"":21892.90000152588},""timestamp"":21892.90000152588},{""type"":""chart_hover"",""data"":{""x"":791,""y"":185,""timestamp"":22277.09999847412},""timestamp"":22277.09999847412},{""type"":""chart_hover"",""data"":{""x"":781,""y"":185,""timestamp"":22293.799995422363},""timestamp"":22293.799995422363},{""type"":""chart_hover"",""data"":{""x"":778,""y"":186,""timestamp"":22308.5},""timestamp"":22308.5},{""type"":""chart_hover"",""data"":{""x"":774,""y"":186,""timestamp"":22325.59999847412},""timestamp"":22325.59999847412},{""type"":""chart_hover"",""data"":{""x"":767,""y"":187,""timestamp"":22341.699996948242},""timestamp"":22341.699996948242},{""type"":""chart_hover"",""data"":{""x"":763,""y"":188,""timestamp"":22358.40000152588},""timestamp"":22358.40000152588},{""type"":""chart_hover"",""data"":{""x"":759,""y"":188,""timestamp"":22375},""timestamp"":22375},{""type"":""chart_hover"",""data"":{""x"":754,""y"":188,""timestamp"":22391.699996948242},""timestamp"":22391.699996948242},{""type"":""chart_hover"",""data"":{""x"":751,""y"":188,""timestamp"":22408.699996948242},""timestamp"":22408.699996948242},{""type"":""chart_hover"",""data"":{""x"":748,""y"":188,""timestamp"":22425.299995422363},""timestamp"":22425.299995422363},{""type"":""chart_hover"",""data"":{""x"":741,""y"":188,""timestamp"":22474.699996948242},""timestamp"":22474.699996948242},{""type"":""chart_hover"",""data"":{""x"":740,""y"":188,""timestamp"":22491.699996948242},""timestamp"":22491.699996948242},{""type"":""chart_hover"",""data"":{""x"":736,""y"":188,""timestamp"":22508.09999847412},""timestamp"":22508.09999847412},{""type"":""chart_hover"",""data"":{""x"":735,""y"":188,""timestamp"":22525},""timestamp"":22525},{""type"":""chart_hover"",""data"":{""x"":732,""y"":188,""timestamp"":22541.5},""timestamp"":22541.5},{""type"":""chart_hover"",""data"":{""x"":731,""y"":188,""timestamp"":22558.09999847412},""timestamp"":22558.09999847412},{""type"":""chart_hover"",""data"":{""x"":728,""y"":188,""timestamp"":22574.799995422363},""timestamp"":22574.799995422363},{""type"":""chart_hover"",""data"":{""x"":724,""y"":188,""timestamp"":22591.09999847412},""timestamp"":22591.09999847412},{""type"":""chart_hover"",""data"":{""x"":720,""y"":188,""timestamp"":22608},""timestamp"":22608},{""type"":""chart_hover"",""data"":{""x"":715,""y"":189,""timestamp"":22624.5},""timestamp"":22624.5},{""type"":""chart_hover"",""data"":{""x"":710,""y"":190,""timestamp"":22641.699996948242},""timestamp"":22641.699996948242},{""type"":""chart_hover"",""data"":{""x"":705,""y"":190,""timestamp"":22657.799995422363},""timestamp"":22657.799995422363},{""type"":""chart_hover"",""data"":{""x"":702,""y"":190,""timestamp"":22674.199996948242},""timestamp"":22674.199996948242},{""type"":""chart_hover"",""data"":{""x"":699,""y"":190,""timestamp"":22691.09999847412},""timestamp"":22691.09999847412},{""type"":""chart_hover"",""data"":{""x"":694,""y"":191,""timestamp"":22707.5},""timestamp"":22707.5},{""type"":""chart_hover"",""data"":{""x"":692,""y"":191,""timestamp"":22724.699996948242},""timestamp"":22724.699996948242},{""type"":""chart_hover"",""data"":{""x"":688,""y"":191,""timestamp"":22741.09999847412},""timestamp"":22741.09999847412},{""type"":""chart_hover"",""data"":{""x"":686,""y"":191,""timestamp"":22757.799995422363},""timestamp"":22757.799995422363},{""type"":""chart_hover"",""data"":{""x"":685,""y"":192,""timestamp"":22774},""timestamp"":22774},{""type"":""chart_hover"",""data"":{""x"":682,""y"":192,""timestamp"":22790.799995422363},""timestamp"":22790.799995422363},{""type"":""chart_hover"",""data"":{""x"":680,""y"":192,""timestamp"":22807.59999847412},""timestamp"":22807.59999847412},{""type"":""chart_hover"",""data"":{""x"":678,""y"":192,""timestamp"":22824},""timestamp"":22824},{""type"":""chart_hover"",""data"":{""x"":676,""y"":192,""timestamp"":22840.5},""timestamp"":22840.5},{""type"":""chart_hover"",""data"":{""x"":673,""y"":192,""timestamp"":22857},""timestamp"":22857},{""type"":""chart_hover"",""data"":{""x"":672,""y"":192,""timestamp"":22874.199996948242},""timestamp"":22874.199996948242},{""type"":""chart_hover"",""data"":{""x"":669,""y"":192,""timestamp"":22890.59999847412},""timestamp"":22890.59999847412},{""type"":""chart_hover"",""data"":{""x"":666,""y"":192,""timestamp"":22907.09999847412},""timestamp"":22907.09999847412},{""type"":""chart_hover"",""data"":{""x"":664,""y"":192,""timestamp"":22923.90000152588},""timestamp"":22923.90000152588},{""type"":""chart_hover"",""data"":{""x"":662,""y"":192,""timestamp"":22940.299995422363},""timestamp"":22940.40000152588},{""type"":""chart_hover"",""data"":{""x"":656,""y"":192,""timestamp"":22990},""timestamp"":22990},{""type"":""chart_hover"",""data"":{""x"":653,""y"":192,""timestamp"":23006.699996948242},""timestamp"":23006.699996948242},{""type"":""chart_hover"",""data"":{""x"":649,""y"":192,""timestamp"":23023.299995422363},""timestamp"":23023.299995422363},{""type"":""chart_hover"",""data"":{""x"":646,""y"":192,""timestamp"":23040},""timestamp"":23040},{""type"":""chart_hover"",""data"":{""x"":643,""y"":192,""timestamp"":23056.799995422363},""timestamp"":23056.799995422363},{""type"":""chart_hover"",""data"":{""x"":640,""y"":192,""timestamp"":23073.5},""timestamp"":23073.5},{""type"":""chart_hover"",""data"":{""x"":639,""y"":192,""timestamp"":23089.90000152588},""timestamp"":23089.90000152588},{""type"":""chart_hover"",""data"":{""x"":636,""y"":192,""timestamp"":23106.40000152588},""timestamp"":23106.40000152588},{""type"":""chart_hover"",""data"":{""x"":635,""y"":192,""timestamp"":23124},""timestamp"":23124},{""type"":""chart_hover"",""data"":{""x"":634,""y"":192,""timestamp"":23139.699996948242},""timestamp"":23139.699996948242},{""type"":""chart_hover"",""data"":{""x"":632,""y"":192,""timestamp"":23156.699996948242},""timestamp"":23156.699996948242},{""type"":""chart_hover"",""data"":{""x"":631,""y"":192,""timestamp"":23186.799995422363},""timestamp"":23186.799995422363},{""type"":""chart_hover"",""data"":{""x"":630,""y"":192,""timestamp"":23193.40000152588},""timestamp"":23193.40000152588},{""type"":""chart_hover"",""data"":{""x"":629,""y"":192,""timestamp"":23207.59999847412},""timestamp"":23207.59999847412},{""type"":""chart_hover"",""data"":{""x"":628,""y"":192,""timestamp"":23222.90000152588},""timestamp"":23222.90000152588},{""type"":""chart_hover"",""data"":{""x"":627,""y"":192,""timestamp"":23240.90000152588},""timestamp"":23240.90000152588},{""type"":""chart_hover"",""data"":{""x"":626,""y"":192,""timestamp"":23256.59999847412},""timestamp"":23256.59999847412},{""type"":""chart_hover"",""data"":{""x"":624,""y"":192,""timestamp"":23272.90000152588},""timestamp"":23272.90000152588},{""type"":""chart_hover"",""data"":{""x"":622,""y"":192,""timestamp"":23289.299995422363},""timestamp"":23289.299995422363},{""type"":""chart_hover"",""data"":{""x"":621,""y"":192,""timestamp"":23305.90000152588},""timestamp"":23305.90000152588},{""type"":""chart_hover"",""data"":{""x"":618,""y"":192,""timestamp"":23322.699996948242},""timestamp"":23322.699996948242},{""type"":""chart_hover"",""data"":{""x"":615,""y"":192,""timestamp"":23339.09999847412},""timestamp"":23339.09999847412},{""type"":""chart_hover"",""data"":{""x"":613,""y"":192,""timestamp"":23356},""timestamp"":23356},{""type"":""chart_hover"",""data"":{""x"":609,""y"":192,""timestamp"":23372.40000152588},""timestamp"":23372.40000152588},{""type"":""chart_hover"",""data"":{""x"":607,""y"":192,""timestamp"":23389.299995422363},""timestamp"":23389.299995422363},{""type"":""chart_hover"",""data"":{""x"":604,""y"":192,""timestamp"":23405.699996948242},""timestamp"":23405.699996948242},{""type"":""chart_hover"",""data"":{""x"":601,""y"":193,""timestamp"":23422.299995422363},""timestamp"":23422.40000152588},{""type"":""chart_hover"",""data"":{""x"":600,""y"":193,""timestamp"":23438.799995422363},""timestamp"":23438.799995422363},{""type"":""chart_hover"",""data"":{""x"":597,""y"":193,""timestamp"":23455.59999847412},""timestamp"":23455.59999847412},{""type"":""chart_hover"",""data"":{""x"":593,""y"":193,""timestamp"":23483.699996948242},""timestamp"":23483.699996948242},{""type"":""chart_hover"",""data"":{""x"":592,""y"":193,""timestamp"":23489.40000152588},""timestamp"":23489.40000152588},{""type"":""chart_hover"",""data"":{""x"":591,""y"":193,""timestamp"":23505.299995422363},""timestamp"":23505.299995422363},{""type"":""chart_hover"",""data"":{""x"":588,""y"":193,""timestamp"":23522},""timestamp"":23522},{""type"":""chart_hover"",""data"":{""x"":586,""y"":193,""timestamp"":23538.5},""timestamp"":23538.5},{""type"":""chart_hover"",""data"":{""x"":584,""y"":193,""timestamp"":23555.59999847412},""timestamp"":23555.59999847412},{""type"":""chart_hover"",""data"":{""x"":580,""y"":193,""timestamp"":23573.90000152588},""timestamp"":23573.90000152588},{""type"":""chart_hover"",""data"":{""x"":578,""y"":193,""timestamp"":23588.59999847412},""timestamp"":23588.59999847412},{""type"":""chart_hover"",""data"":{""x"":574,""y"":193,""timestamp"":23607},""timestamp"":23607},{""type"":""chart_hover"",""data"":{""x"":572,""y"":193,""timestamp"":23622},""timestamp"":23622},{""type"":""chart_hover"",""data"":{""x"":570,""y"":193,""timestamp"":23638.299995422363},""timestamp"":23638.299995422363},{""type"":""chart_hover"",""data"":{""x"":568,""y"":193,""timestamp"":23655},""timestamp"":23655},{""type"":""chart_hover"",""data"":{""x"":566,""y"":193,""timestamp"":23671.799995422363},""timestamp"":23671.799995422363},{""type"":""chart_hover"",""data"":{""x"":563,""y"":193,""timestamp"":23688.40000152588},""timestamp"":23688.40000152588},{""type"":""chart_hover"",""data"":{""x"":561,""y"":193,""timestamp"":23705.199996948242},""timestamp"":23705.199996948242},{""type"":""chart_hover"",""data"":{""x"":560,""y"":193,""timestamp"":23721.40000152588},""timestamp"":23721.40000152588},{""type"":""chart_hover"",""data"":{""x"":557,""y"":193,""timestamp"":23738},""timestamp"":23738},{""type"":""chart_hover"",""data"":{""x"":555,""y"":193,""timestamp"":23754.799995422363},""timestamp"":23754.799995422363},{""type"":""chart_hover"",""data"":{""x"":553,""y"":193,""timestamp"":23771.59999847412},""timestamp"":23771.59999847412},{""type"":""chart_hover"",""data"":{""x"":552,""y"":193,""timestamp"":23788.40000152588},""timestamp"":23788.40000152588},{""type"":""chart_hover"",""data"":{""x"":550,""y"":193,""timestamp"":23804.59999847412},""timestamp"":23804.59999847412},{""type"":""chart_hover"",""data"":{""x"":548,""y"":193,""timestamp"":23821.299995422363},""timestamp"":23821.299995422363},{""type"":""chart_hover"",""data"":{""x"":547,""y"":193,""timestamp"":23845.299995422363},""timestamp"":23845.299995422363},{""type"":""chart_hover"",""data"":{""x"":546,""y"":193,""timestamp"":23866.40000152588},""timestamp"":23866.40000152588},{""type"":""chart_hover"",""data"":{""x"":545,""y"":193,""timestamp"":23873},""timestamp"":23873},{""type"":""chart_hover"",""data"":{""x"":544,""y"":193,""timestamp"":23888},""timestamp"":23888},{""type"":""chart_hover"",""data"":{""x"":543,""y"":192,""timestamp"":23904.299995422363},""timestamp"":23904.299995422363},{""type"":""chart_hover"",""data"":{""x"":541,""y"":192,""timestamp"":23921},""timestamp"":23921},{""type"":""chart_hover"",""data"":{""x"":536,""y"":191,""timestamp"":23937.5},""timestamp"":23937.5},{""type"":""chart_hover"",""data"":{""x"":534,""y"":191,""timestamp"":23954.199996948242},""timestamp"":23954.199996948242},{""type"":""chart_hover"",""data"":{""x"":533,""y"":191,""timestamp"":23970.799995422363},""timestamp"":23970.799995422363},{""type"":""chart_hover"",""data"":{""x"":530,""y"":191,""timestamp"":23991.40000152588},""timestamp"":23991.40000152588},{""type"":""chart_hover"",""data"":{""x"":529,""y"":191,""timestamp"":24004.40000152588},""timestamp"":24004.40000152588},{""type"":""chart_hover"",""data"":{""x"":528,""y"":191,""timestamp"":24020.699996948242},""timestamp"":24020.699996948242},{""type"":""chart_hover"",""data"":{""x"":527,""y"":191,""timestamp"":24037.09999847412},""timestamp"":24037.09999847412},{""type"":""chart_hover"",""data"":{""x"":525,""y"":191,""timestamp"":24053.799995422363},""timestamp"":24053.799995422363},{""type"":""chart_hover"",""data"":{""x"":524,""y"":191,""timestamp"":24072.09999847412},""timestamp"":24072.09999847412},{""type"":""chart_hover"",""data"":{""x"":523,""y"":191,""timestamp"":24100.09999847412},""timestamp"":24100.09999847412},{""type"":""chart_hover"",""data"":{""x"":522,""y"":191,""timestamp"":24141.59999847412},""timestamp"":24141.59999847412},{""type"":""chart_hover"",""data"":{""x"":521,""y"":191,""timestamp"":24155.59999847412},""timestamp"":24155.699996948242},{""type"":""chart_hover"",""data"":{""x"":520,""y"":191,""timestamp"":24203.699996948242},""timestamp"":24203.699996948242},{""type"":""chart_hover"",""data"":{""x"":521,""y"":191,""timestamp"":24802},""timestamp"":24802},{""type"":""chart_hover"",""data"":{""x"":522,""y"":191,""timestamp"":24821.40000152588},""timestamp"":24821.40000152588},{""type"":""chart_hover"",""data"":{""x"":523,""y"":191,""timestamp"":24840.699996948242},""timestamp"":24840.699996948242},{""type"":""chart_hover"",""data"":{""x"":524,""y"":191,""timestamp"":24855.09999847412},""timestamp"":24855.09999847412},{""type"":""chart_hover"",""data"":{""x"":525,""y"":191,""timestamp"":24917.699996948242},""timestamp"":24917.699996948242},{""type"":""chart_hover"",""data"":{""x"":526,""y"":191,""timestamp"":24935.40000152588},""timestamp"":24935.40000152588},{""type"":""chart_hover"",""data"":{""x"":527,""y"":191,""timestamp"":24965.299995422363},""timestamp"":24965.299995422363},{""type"":""chart_hover"",""data"":{""x"":528,""y"":191,""timestamp"":24972.299995422363},""timestamp"":24972.299995422363},{""type"":""chart_hover"",""data"":{""x"":530,""y"":191,""timestamp"":25024.90000152588},""timestamp"":25024.90000152588},{""type"":""chart_hover"",""data"":{""x"":531,""y"":191,""timestamp"":25047.199996948242},""timestamp"":25047.199996948242},{""type"":""chart_hover"",""data"":{""x"":532,""y"":192,""timestamp"":25084.59999847412},""timestamp"":25084.59999847412},{""type"":""chart_hover"",""data"":{""x"":533,""y"":192,""timestamp"":25134.199996948242},""timestamp"":25134.199996948242},{""type"":""chart_hover"",""data"":{""x"":534,""y"":192,""timestamp"":25150.799995422363},""timestamp"":25150.799995422363},{""type"":""chart_hover"",""data"":{""x"":523,""y"":219,""timestamp"":26203.699996948242},""timestamp"":26203.699996948242},{""type"":""chart_hover"",""data"":{""x"":500,""y"":261,""timestamp"":26218.5},""timestamp"":26218.5},{""type"":""chart_hover"",""data"":{""x"":451,""y"":352,""timestamp"":26231.5},""timestamp"":26231.5},{""type"":""chart_hover"",""data"":{""x"":401,""y"":442,""timestamp"":26247.799995422363},""timestamp"":26247.799995422363},{""type"":""chart_leave"",""data"":{""timestamp"":26264.40000152588},""timestamp"":26264.40000152588},{""type"":""chart_enter"",""data"":{""timestamp"":29771.59999847412},""timestamp"":29771.699996948242},{""type"":""chart_hover"",""data"":{""x"":662,""y"":465,""timestamp"":29771.699996948242},""timestamp"":29771.699996948242},{""type"":""chart_hover"",""data"":{""x"":773,""y"":422,""timestamp"":29788.40000152588},""timestamp"":29788.40000152588},{""type"":""chart_hover"",""data"":{""x"":823,""y"":412,""timestamp"":29804.90000152588},""timestamp"":29804.90000152588},{""type"":""chart_hover"",""data"":{""x"":840,""y"":410,""timestamp"":29821.90000152588},""timestamp"":29821.90000152588},{""type"":""chart_hover"",""data"":{""x"":858,""y"":410,""timestamp"":29839.09999847412},""timestamp"":29839.09999847412},{""type"":""chart_hover"",""data"":{""x"":848,""y"":364,""timestamp"":30087.5},""timestamp"":30087.5},{""type"":""chart_hover"",""data"":{""x"":835,""y"":329,""timestamp"":30103.90000152588},""timestamp"":30103.90000152588},{""type"":""chart_hover"",""data"":{""x"":815,""y"":296,""timestamp"":30120.59999847412},""timestamp"":30120.59999847412},{""type"":""chart_hover"",""data"":{""x"":810,""y"":287,""timestamp"":30137.299995422363},""timestamp"":30137.299995422363},{""type"":""chart_hover"",""data"":{""x"":772,""y"":242,""timestamp"":30169.09999847412},""timestamp"":30169.09999847412},{""type"":""chart_hover"",""data"":{""x"":768,""y"":237,""timestamp"":30174.199996948242},""timestamp"":30174.299995422363},{""type"":""chart_hover"",""data"":{""x"":766,""y"":233,""timestamp"":30187.09999847412},""timestamp"":30187.09999847412},{""type"":""chart_hover"",""data"":{""x"":760,""y"":224,""timestamp"":30203.59999847412},""timestamp"":30203.59999847412},{""type"":""chart_hover"",""data"":{""x"":760,""y"":222,""timestamp"":30220.299995422363},""timestamp"":30220.299995422363},{""type"":""chart_hover"",""data"":{""x"":758,""y"":221,""timestamp"":30237.199996948242},""timestamp"":30237.299995422363},{""type"":""chart_hover"",""data"":{""x"":780,""y"":213,""timestamp"":30450.59999847412},""timestamp"":30450.59999847412},{""type"":""chart_hover"",""data"":{""x"":813,""y"":203,""timestamp"":30458.199996948242},""timestamp"":30458.199996948242},{""type"":""chart_hover"",""data"":{""x"":835,""y"":196,""timestamp"":30469.699996948242},""timestamp"":30469.699996948242},{""type"":""chart_hover"",""data"":{""x"":868,""y"":184,""timestamp"":30486.5},""timestamp"":30486.5},{""type"":""chart_hover"",""data"":{""x"":888,""y"":176,""timestamp"":30503.09999847412},""timestamp"":30503.09999847412},{""type"":""chart_hover"",""data"":{""x"":923,""y"":164,""timestamp"":30519.59999847412},""timestamp"":30519.59999847412},{""type"":""chart_hover"",""data"":{""x"":946,""y"":156,""timestamp"":30536.40000152588},""timestamp"":30536.40000152588},{""type"":""chart_hover"",""data"":{""x"":975,""y"":149,""timestamp"":30552.699996948242},""timestamp"":30552.699996948242},{""type"":""chart_hover"",""data"":{""x"":986,""y"":148,""timestamp"":30569.5},""timestamp"":30569.59999847412},{""type"":""chart_hover"",""data"":{""x"":991,""y"":148,""timestamp"":30586.09999847412},""timestamp"":30586.09999847412},{""type"":""chart_hover"",""data"":{""x"":994,""y"":148,""timestamp"":30602.90000152588},""timestamp"":30602.90000152588},{""type"":""chart_hover"",""data"":{""x"":996,""y"":148,""timestamp"":30619.299995422363},""timestamp"":30619.299995422363},{""type"":""chart_hover"",""data"":{""x"":996,""y"":149,""timestamp"":30636.09999847412},""timestamp"":30636.09999847412},{""type"":""chart_hover"",""data"":{""x"":997,""y"":151,""timestamp"":30702.299995422363},""timestamp"":30702.299995422363},{""type"":""chart_hover"",""data"":{""x"":997,""y"":152,""timestamp"":30719.09999847412},""timestamp"":30719.199996948242},{""type"":""chart_hover"",""data"":{""x"":996,""y"":152,""timestamp"":30752.5},""timestamp"":30752.5},{""type"":""chart_hover"",""data"":{""x"":995,""y"":154,""timestamp"":30769.09999847412},""timestamp"":30769.09999847412},{""type"":""chart_hover"",""data"":{""x"":992,""y"":156,""timestamp"":30785.699996948242},""timestamp"":30785.699996948242},{""type"":""chart_hover"",""data"":{""x"":988,""y"":160,""timestamp"":30802},""timestamp"":30802},{""type"":""chart_hover"",""data"":{""x"":985,""y"":161,""timestamp"":30818.90000152588},""timestamp"":30818.90000152588},{""type"":""chart_hover"",""data"":{""x"":979,""y"":166,""timestamp"":30835.199996948242},""timestamp"":30835.199996948242},{""type"":""chart_hover"",""data"":{""x"":975,""y"":168,""timestamp"":30852.09999847412},""timestamp"":30852.09999847412},{""type"":""chart_hover"",""data"":{""x"":969,""y"":172,""timestamp"":30868.40000152588},""timestamp"":30868.40000152588},{""type"":""chart_hover"",""data"":{""x"":964,""y"":174,""timestamp"":30885.299995422363},""timestamp"":30885.299995422363},{""type"":""chart_hover"",""data"":{""x"":960,""y"":176,""timestamp"":30901.799995422363},""timestamp"":30901.799995422363},{""type"":""chart_hover"",""data"":{""x"":954,""y"":177,""timestamp"":30918.699996948242},""timestamp"":30918.699996948242},{""type"":""chart_hover"",""data"":{""x"":948,""y"":178,""timestamp"":30935},""timestamp"":30935},{""type"":""chart_hover"",""data"":{""x"":938,""y"":178,""timestamp"":30951.5},""timestamp"":30951.5},{""type"":""chart_hover"",""data"":{""x"":932,""y"":178,""timestamp"":30968.199996948242},""timestamp"":30968.199996948242},{""type"":""chart_hover"",""data"":{""x"":925,""y"":178,""timestamp"":30985.299995422363},""timestamp"":30985.299995422363},{""type"":""chart_hover"",""data"":{""x"":922,""y"":178,""timestamp"":31001.699996948242},""timestamp"":31001.699996948242},{""type"":""chart_hover"",""data"":{""x"":920,""y"":178,""timestamp"":31018.40000152588},""timestamp"":31018.40000152588},{""type"":""chart_hover"",""data"":{""x"":916,""y"":178,""timestamp"":31035.199996948242},""timestamp"":31035.199996948242},{""type"":""chart_hover"",""data"":{""x"":913,""y"":178,""timestamp"":31052},""timestamp"":31052},{""type"":""chart_hover"",""data"":{""x"":908,""y"":177,""timestamp"":31068.199996948242},""timestamp"":31068.199996948242},{""type"":""chart_hover"",""data"":{""x"":900,""y"":176,""timestamp"":31084.699996948242},""timestamp"":31084.699996948242},{""type"":""chart_hover"",""data"":{""x"":891,""y"":174,""timestamp"":31101.09999847412},""timestamp"":31101.09999847412},{""type"":""chart_hover"",""data"":{""x"":886,""y"":172,""timestamp"":31117.799995422363},""timestamp"":31117.799995422363},{""type"":""chart_hover"",""data"":{""x"":880,""y"":172,""timestamp"":31134.59999847412},""timestamp"":31134.59999847412},{""type"":""chart_hover"",""data"":{""x"":876,""y"":171,""timestamp"":31151.09999847412},""timestamp"":31151.09999847412},{""type"":""chart_hover"",""data"":{""x"":874,""y"":171,""timestamp"":31167.699996948242},""timestamp"":31167.699996948242},{""type"":""chart_hover"",""data"":{""x"":864,""y"":170,""timestamp"":31217.59999847412},""timestamp"":31217.59999847412},{""type"":""chart_hover"",""data"":{""x"":862,""y"":170,""timestamp"":31234.40000152588},""timestamp"":31234.40000152588},{""type"":""chart_hover"",""data"":{""x"":860,""y"":170,""timestamp"":31250.699996948242},""timestamp"":31250.699996948242},{""type"":""chart_hover"",""data"":{""x"":859,""y"":170,""timestamp"":31267.40000152588},""timestamp"":31267.40000152588},{""type"":""chart_hover"",""data"":{""x"":857,""y"":170,""timestamp"":31284},""timestamp"":31284},{""type"":""chart_hover"",""data"":{""x"":856,""y"":170,""timestamp"":31300.90000152588},""timestamp"":31300.90000152588},{""type"":""chart_hover"",""data"":{""x"":854,""y"":170,""timestamp"":31333.699996948242},""timestamp"":31333.699996948242},{""type"":""chart_hover"",""data"":{""x"":853,""y"":169,""timestamp"":31350.699996948242},""timestamp"":31350.699996948242},{""type"":""chart_hover"",""data"":{""x"":852,""y"":169,""timestamp"":31367.59999847412},""timestamp"":31367.59999847412},{""type"":""chart_hover"",""data"":{""x"":850,""y"":169,""timestamp"":31401.199996948242},""timestamp"":31401.199996948242},{""type"":""chart_hover"",""data"":{""x"":847,""y"":168,""timestamp"":31417},""timestamp"":31417.299995422363},{""type"":""chart_hover"",""data"":{""x"":843,""y"":168,""timestamp"":31434.09999847412},""timestamp"":31434.09999847412},{""type"":""chart_hover"",""data"":{""x"":840,""y"":168,""timestamp"":31450.799995422363},""timestamp"":31450.799995422363},{""type"":""chart_hover"",""data"":{""x"":836,""y"":168,""timestamp"":31467.299995422363},""timestamp"":31467.299995422363},{""type"":""chart_hover"",""data"":{""x"":832,""y"":168,""timestamp"":31484.299995422363},""timestamp"":31484.299995422363},{""type"":""chart_hover"",""data"":{""x"":827,""y"":168,""timestamp"":31500.59999847412},""timestamp"":31500.59999847412},{""type"":""chart_hover"",""data"":{""x"":823,""y"":168,""timestamp"":31516.699996948242},""timestamp"":31516.699996948242},{""type"":""chart_hover"",""data"":{""x"":816,""y"":167,""timestamp"":31533.799995422363},""timestamp"":31533.799995422363},{""type"":""chart_hover"",""data"":{""x"":808,""y"":166,""timestamp"":31550.09999847412},""timestamp"":31550.09999847412},{""type"":""chart_hover"",""data"":{""x"":800,""y"":166,""timestamp"":31566.5},""timestamp"":31566.5},{""type"":""chart_hover"",""data"":{""x"":790,""y"":165,""timestamp"":31583.40000152588},""timestamp"":31583.40000152588},{""type"":""chart_hover"",""data"":{""x"":785,""y"":165,""timestamp"":31600.40000152588},""timestamp"":31600.40000152588},{""type"":""chart_hover"",""data"":{""x"":780,""y"":165,""timestamp"":31616.59999847412},""timestamp"":31616.59999847412},{""type"":""chart_hover"",""data"":{""x"":778,""y"":164,""timestamp"":31633.09999847412},""timestamp"":31633.09999847412},{""type"":""chart_hover"",""data"":{""x"":776,""y"":164,""timestamp"":31649.699996948242},""timestamp"":31649.699996948242},{""type"":""chart_hover"",""data"":{""x"":773,""y"":164,""timestamp"":31666.299995422363},""timestamp"":31666.299995422363},{""type"":""chart_hover"",""data"":{""x"":772,""y"":164,""timestamp"":31716.199996948242},""timestamp"":31716.199996948242},{""type"":""chart_hover"",""data"":{""x"":766,""y"":164,""timestamp"":32031.90000152588},""timestamp"":32031.90000152588},{""type"":""chart_hover"",""data"":{""x"":744,""y"":164,""timestamp"":32049.299995422363},""timestamp"":32049.299995422363},{""type"":""chart_hover"",""data"":{""x"":727,""y"":163,""timestamp"":32065.299995422363},""timestamp"":32065.299995422363},{""type"":""chart_hover"",""data"":{""x"":709,""y"":162,""timestamp"":32082},""timestamp"":32082},{""type"":""chart_hover"",""data"":{""x"":695,""y"":161,""timestamp"":32099.40000152588},""timestamp"":32099.40000152588},{""type"":""chart_hover"",""data"":{""x"":678,""y"":160,""timestamp"":32115},""timestamp"":32115.09999847412},{""type"":""chart_hover"",""data"":{""x"":671,""y"":159,""timestamp"":32131.699996948242},""timestamp"":32131.699996948242},{""type"":""chart_hover"",""data"":{""x"":663,""y"":157,""timestamp"":32148.299995422363},""timestamp"":32148.299995422363},{""type"":""chart_hover"",""data"":{""x"":656,""y"":157,""timestamp"":32164.799995422363},""timestamp"":32164.799995422363},{""type"":""chart_hover"",""data"":{""x"":653,""y"":157,""timestamp"":32181.699996948242},""timestamp"":32181.699996948242},{""type"":""chart_hover"",""data"":{""x"":651,""y"":157,""timestamp"":32198.40000152588},""timestamp"":32198.40000152588},{""type"":""chart_hover"",""data"":{""x"":643,""y"":159,""timestamp"":32222.90000152588},""timestamp"":32222.90000152588},{""type"":""chart_hover"",""data"":{""x"":640,""y"":159,""timestamp"":32231.40000152588},""timestamp"":32231.40000152588},{""type"":""chart_hover"",""data"":{""x"":639,""y"":159,""timestamp"":32248},""timestamp"":32248},{""type"":""chart_hover"",""data"":{""x"":635,""y"":160,""timestamp"":32264.799995422363},""timestamp"":32264.799995422363},{""type"":""chart_hover"",""data"":{""x"":632,""y"":160,""timestamp"":32281.299995422363},""timestamp"":32281.299995422363},{""type"":""chart_hover"",""data"":{""x"":628,""y"":160,""timestamp"":32298},""timestamp"":32298},{""type"":""chart_hover"",""data"":{""x"":624,""y"":160,""timestamp"":32316.5},""timestamp"":32316.5},{""type"":""chart_hover"",""data"":{""x"":621,""y"":161,""timestamp"":32332.09999847412},""timestamp"":32332.09999847412},{""type"":""chart_hover"",""data"":{""x"":618,""y"":161,""timestamp"":32349.799995422363},""timestamp"":32349.799995422363},{""type"":""chart_hover"",""data"":{""x"":616,""y"":162,""timestamp"":32364.59999847412},""timestamp"":32364.59999847412},{""type"":""chart_hover"",""data"":{""x"":613,""y"":162,""timestamp"":32381.199996948242},""timestamp"":32381.199996948242},{""type"":""chart_hover"",""data"":{""x"":610,""y"":162,""timestamp"":32397.59999847412},""timestamp"":32397.59999847412},{""type"":""chart_hover"",""data"":{""x"":607,""y"":162,""timestamp"":32414.699996948242},""timestamp"":32414.699996948242},{""type"":""chart_hover"",""data"":{""x"":602,""y"":162,""timestamp"":32430.799995422363},""timestamp"":32430.799995422363},{""type"":""chart_hover"",""data"":{""x"":600,""y"":162,""timestamp"":32447.90000152588},""timestamp"":32447.90000152588},{""type"":""chart_hover"",""data"":{""x"":596,""y"":162,""timestamp"":32464.09999847412},""timestamp"":32464.09999847412},{""type"":""chart_hover"",""data"":{""x"":592,""y"":162,""timestamp"":32480.699996948242},""timestamp"":32480.699996948242},{""type"":""chart_hover"",""data"":{""x"":588,""y"":162,""timestamp"":32497.59999847412},""timestamp"":32497.699996948242},{""type"":""chart_hover"",""data"":{""x"":584,""y"":162,""timestamp"":32514.09999847412},""timestamp"":32514.09999847412},{""type"":""chart_hover"",""data"":{""x"":580,""y"":162,""timestamp"":32530.799995422363},""timestamp"":32530.799995422363},{""type"":""chart_hover"",""data"":{""x"":576,""y"":162,""timestamp"":32547.40000152588},""timestamp"":32547.40000152588},{""type"":""chart_hover"",""data"":{""x"":573,""y"":162,""timestamp"":32563.799995422363},""timestamp"":32563.799995422363},{""type"":""chart_hover"",""data"":{""x"":571,""y"":162,""timestamp"":32580.5},""timestamp"":32580.5},{""type"":""chart_hover"",""data"":{""x"":567,""y"":162,""timestamp"":32597},""timestamp"":32597},{""type"":""chart_hover"",""data"":{""x"":564,""y"":162,""timestamp"":32613.699996948242},""timestamp"":32613.699996948242},{""type"":""chart_hover"",""data"":{""x"":560,""y"":162,""timestamp"":32630.5},""timestamp"":32630.5},{""type"":""chart_hover"",""data"":{""x"":559,""y"":162,""timestamp"":32647},""timestamp"":32647},{""type"":""chart_hover"",""data"":{""x"":556,""y"":162,""timestamp"":32665.5},""timestamp"":32665.5},{""type"":""chart_hover"",""data"":{""x"":554,""y"":162,""timestamp"":32680.199996948242},""timestamp"":32680.199996948242},{""type"":""chart_hover"",""data"":{""x"":552,""y"":162,""timestamp"":32696.90000152588},""timestamp"":32696.90000152588},{""type"":""chart_hover"",""data"":{""x"":546,""y"":162,""timestamp"":32746.59999847412},""timestamp"":32746.59999847412},{""type"":""chart_hover"",""data"":{""x"":543,""y"":162,""timestamp"":32763.40000152588},""timestamp"":32763.40000152588},{""type"":""chart_hover"",""data"":{""x"":541,""y"":162,""timestamp"":32779.90000152588},""timestamp"":32779.90000152588},{""type"":""chart_hover"",""data"":{""x"":539,""y"":162,""timestamp"":32796.59999847412},""timestamp"":32796.59999847412},{""type"":""chart_hover"",""data"":{""x"":537,""y"":162,""timestamp"":32815.29999542236},""timestamp"":32815.29999542236},{""type"":""chart_hover"",""data"":{""x"":536,""y"":162,""timestamp"":32830.19999694824},""timestamp"":32830.19999694824},{""type"":""chart_hover"",""data"":{""x"":534,""y"":162,""timestamp"":32846.69999694824},""timestamp"":32846.69999694824},{""type"":""chart_hover"",""data"":{""x"":534,""y"":163,""timestamp"":32863.09999847412},""timestamp"":32863.09999847412},{""type"":""chart_hover"",""data