city_a_estimate,city_b_estimate,click_events,comprehension_ease,condition,condition_id,condition_name,confidence_label,confidence_rating,data_trust,display_format,end_time,failed_audio,failed_images,failed_video,hover_events,interaction_log,internal_node_id,participant_id,percent_score,phase,phase1_complete,phase2_complete,predictions_shown,probability_estimate,question_order,response,responses,round,rt,rt_total,skeptical_rating,slider_moved,start_time,stimulus,success,time_elapsed,time_on_viz,timeout,total_interactions,total_questions,total_score,travel_choice,trial_index,trial_type,trust_composite,usability_composite,usability_difficulty,view_history,visualization_literacy_score,visualization_shown
,,,,,,,,,,,,"[]","[]","[]",,,0.0-0.0,670f6171756d8d3b2a73e819,,,,,,,,,,,,,,,,,true,753,,false,,,,,0,preload,,,,,,
,,,,,,,,,,,,,,,,,0.0-1.0,670f6171756d8d3b2a73e819,,,,,,,,0,,,64484,,,,,"
	        <div class=""welcome-screen"">
	            <h1>Air Quality Prediction Study</h1>
	            <p>Welcome! You are about to participate in a research study about how people make decisions using air quality predictions. This study examines how different ways of presenting prediction information affect trust and decision-making. The study will take approximately 15 minutes.</p>
	            <div class=""study-info"">
	                <h3>What you'll do:</h3>
	                <ul>
	                    <li>Complete a brief assessment of visualization understanding</li>
	                    <li>Make predictions about air quality in two cities</li>
	                    <li>Answer questions about your confidence and trust</li>
						<li>Report basic demographic data</li>
	                </ul>
	            </div>
	        </div>
	    ",,65239,,,,,,,1,html-button-response,,,,,,
,,,,,,,,,,,,,,,,,0.0-2.0,670f6171756d8d3b2a73e819,,,,,,,,,,,11838,,,,,,true,78086,,,,,,,2,fullscreen,,,,,,
,,,,,,,,,,,,,,,,,0.0-3.0,670f6171756d8d3b2a73e819,,,,,,,,"{""participant_id"":""670f6171756d8d3b2a73e819""}",,,41073,,,,,,,119167,,,,,,,3,survey-text,,,,,,
,,,,,,,,,,,,,,,,,0.0-4.0,670f6171756d8d3b2a73e819,,,,,,,,0,,,31493,,,,,"
	        <div class=""consent-form"">
	            <h2>Consent Form</h2>
	            <div class=""consent-header"">
	                <p><strong>Principal Investigator:</strong> Dr. Cindy Xiong Bearfield, Assistant Professor</p>
	                <p><strong>Study Title:</strong> Trusting What We See: Effect of Interactivity in Visual Data Analysis</p>
	                <p><strong>Supported By:</strong> Georgia Institute of Technology</p>
	            </div>
	            
	            <div class=""consent-details"">
	                <h3>WHAT IS THIS FORM?</h3>
	                <p>This form is called a Consent Form. It will give you information about the study so you can make an informed decision about participation in this research. We encourage you to take some time to think this over and ask questions now and at any other time. If you decide to participate, you will be asked to sign this form and you will be given a copy for your records.</p>

	                <h3>WHAT ARE SOME OF THE IMPORTANT ASPECTS OF THIS RESEARCH STUDY THAT I SHOULD BE AWARE OF?</h3>
	                <ul>
	                    <li>Whether or not you take part is up to you.</li>
	                    <li>You can choose not to take part.</li>
	                    <li>You can agree to take part and later change your mind.</li>
	                    <li>Your decision will not be held against you.</li>
	                </ul>

	                <h3>WHY ARE WE DOING THIS RESEARCH STUDY?</h3>
	                <p>The purpose of our study is to explore the visualization design space so we can understand how people perceive, interpret, and make decisions from visualizations. The results from this study can help us design visualizations and visualization guidelines to help people better communicate and understand data.</p>

	                <h3>WHO CAN PARTICIPATE IN THIS RESEARCH STUDY?</h3>
	                <p>Participants in this study must be at least 18 years of age or older and have general familiarity with using web-based systems. Participants currently outside of the U.S. cannot participate in this study (e.g. in the European Union or China).</p>

	                <h3>WHAT COMPENSATION I WILL RECEIVE?</h3>
	                <p>You will receive payment through Prolific worth $12/hour for participating in this study. We expect this study to take less than 20 minutes. Your participation is entirely voluntary. You are free to withdraw at any time, and if you do, you will receive partial payment for your time.</p>

	                <h3>HOW MANY PEOPLE WILL PARTICIPATE?</h3>
	                <p>We expect about 200 people will be in this research study.</p>

	                <h3>WHAT WILL I BE ASKED TO DO AND HOW MUCH TIME WILL IT TAKE?</h3>
	                <p>We will show you several data visualizations or components of a visualization and ask you to perform a visual task with the visualization on a computer screen, such as counting, searching, recognizing, memorizing, or describing the information presented to you. We may also ask you to fill out questionnaires concerning your thoughts regarding the visualization you saw. We expect that you will be in this research study to take between 15 and 60 minutes. We expect this study to be a one-off session and will not contact you regarding the study itself in the future.</p>

	                <h3>WILL BEING IN THIS RESEARCH STUDY HELP ME IN ANY WAY?</h3>
	                <p>You are not likely to have any direct benefit from being in this research study. The potential benefits to you from participation may include learning about how data visualization research is conducted, and you may learn about issues of current interest in data visualization and psychology.</p>

	                <h3>WHAT ARE MY RISKS OF BEING IN THIS RESEARCH STUDY?</h3>
	                <p>Your participation in this study does not involve any risks other than what you would encounter in daily life. In particular, you may experience fatigue or boredom, however, you may take breaks between tasks. The effects of participating should be comparable to those you would experience from viewing a computer monitor and using a keyboard. You may withdraw at any time.</p>

	                <h3>HOW WILL MY PERSONAL INFORMATION BE PROTECTED?</h3>
	                <p>We will comply with any applicable laws and regulations regarding confidentiality. To make sure that this research is being carried out in the proper way, the Georgia Institute of Technology IRB may review study records. The Office of Human Research Protections may also look at study records.</p>
	                <p>Efforts will be made to limit the use and disclosure of your personal information, including research study records, to people who need to review this information. We cannot promise complete secrecy. Organizations that may inspect and copy your information include the IRB and other representatives of this institution. Please be notified that our data privacy policy is based on U.S. regulations. Participants who are out of the U.S. might be excluded due to different data privacy requirements.</p>
	                <p><strong>Data Sharing:</strong> De-identified data from this study will be shared among the GATech research team, as well as the research community at large to advance science and health. We will remove or code any personal information that could identify you before files are shared with other researchers to ensure that, by current scientific standards and known methods, no one will be able to identify you from the information we share. Despite these measures, we cannot guarantee the anonymity of your personal data.</p>

	                <h3>WILL I BE GIVEN ANY MONEY OR OTHER COMPENSATION FOR BEING IN THIS RESEARCH STUDY?</h3>
	                <p>If you agree to take part in this research study, we will provide compensation. You will be paid in accordance with the stated policies of Amazon Mechanical Turk and/or Prolific.com. Payment will be made upon completion and acceptance of tasks that you have agreed to complete and you will be paid via Mechanical Turk or Prolific.com. If you choose to withdraw from the study, you will not be compensated for your participation.</p>

	                <h3>WHAT ELSE DO I NEED TO KNOW?</h3>
	                <p>We might be using attention check questions in our surveys. If you miss 2 or more attention check questions, your HIT will not be accepted and you will not be compensated.</p>

	                <h3>WHO CAN I TALK TO IF I HAVE QUESTIONS?</h3>
	                <p>If you have any questions about the content of this research project, you may contact Dr. Cindy Xiong Bearfield at cxiong@gatech.edu, or contact Songwen Hu at shu343@gatech.edu. If you have any questions about your rights as a research subject, you may also contact Georgia Institute of Technology Office of Research Integrity Assurance at IRB@gatech.edu.</p>

	                <h3>WHAT HAPPENS IF I SAY YES, BUT I CHANGE MY MIND LATER?</h3>
	                <p>You can decide not to participate in this research or you can start and then decide to leave the research at any time and it will not be held against you. To do so, simply exit the experiment. Any data already collected will not be saved.</p>

	                <p><strong>By clicking ""I agree"" below you are indicating that you are at least 18 years old, currently in the U.S., have read this consent form, and agree to participate in this research study. Please print a copy of this page for your records.</strong></p>
	            </div>
	        </div>
	    ",,150662,,,,,,,4,html-button-response,,,,,,
,,,,,,,,,,,,,,,,,0.0-5.0,670f6171756d8d3b2a73e819,,,,,,,,0,,,30342,,,,,"
	        <div class=""vis-literacy-intro"">
	            <h2>Visualization Assessment</h2>
	            <p>Before we begin the main study, we'd like to assess your ability to read and interpret data visualizations.</p>
	            
	            <div class=""assessment-info"">
	                <h3>What you'll do:</h3>
	                <ul>
	                    <li>View 12 different data visualizations (charts and graphs)</li>
	                    <li>Answer questions about what each visualization shows</li>
	                    <li>Take your time to examine each chart carefully</li>
	                </ul>
	                
	                <p><strong>This assessment will take approximately 5-10 minutes.</strong></p>
	                <p>There are no right or wrong interpretations - we're interested in how you read visualizations.</p>
	            </div>
	        </div>
	    ",,181005,,,,,,,5,html-button-response,,,,,,
,,,,,condition_1_baseline,Baseline,,,,,,,,,,,0.0-6.0,670f6171756d8d3b2a73e819,33,,,,,,,,"[{""question_id"":""minivlat_1"",""question_type"":""line_chart"",""question_text"":""What was the price range of a barrel of oil in 2020?"",""response"":0,""correct_answer"":0,""is_correct"":true,""rt"":41790.59999999404},{""question_id"":""minivlat_2"",""question_type"":""bar_chart"",""question_text"":""What is the range of the average internet speed in Asia?"",""response"":1,""correct_answer"":3,""is_correct"":false,""rt"":137798.90000000596},{""question_id"":""minivlat_3"",""question_type"":""stacked_bar"",""question_text"":""What is the cost of peanuts in Las Vegas?"",""response"":2,""correct_answer"":1,""is_correct"":false,""rt"":96966.79999999702},{""question_id"":""minivlat_4"",""question_type"":""stacked_100_bar"",""question_text"":""What is the approval rating of Republicans among postgraduate-educated people?"",""response"":1,""correct_answer"":1,""is_correct"":true,""rt"":113830.90000000596},{""question_id"":""minivlat_5"",""question_type"":""pie_chart"",""question_text"":""About what is the global smartphone market share of Samsung?"",""response"":0,""correct_answer"":1,""is_correct"":false,""rt"":15535.89999999106},{""question_id"":""minivlat_6"",""question_type"":""histogram"",""question_text"":""How many people have rated the taxi between 4.2 and 4.4?"",""response"":0,""correct_answer"":1,""is_correct"":false,""rt"":52423.79999999702},{""question_id"":""minivlat_7"",""question_type"":""scatter_plot"",""question_text"":""There is a negative linear relationship between the height and the weight of the 85 males."",""response"":1,""correct_answer"":1,""is_correct"":true,""rt"":116566.79999999702},{""question_id"":""minivlat_8"",""question_type"":""area_chart"",""question_text"":""What was the average price of a pound of coffee beans in September 2013?"",""response"":3,""correct_answer"":0,""is_correct"":false,""rt"":93631},{""question_id"":""minivlat_9"",""question_type"":""stacked_area"",""question_text"":""What was the number of girls named 'Olivia' in 2010 in the UK?"",""response"":3,""correct_answer"":2,""is_correct"":false,""rt"":238765.90000000596},{""question_id"":""minivlat_10"",""question_type"":""bubble_chart"",""question_text"":""What is the total length of the metro system in Beijing?"",""response"":2,""correct_answer"":0,""is_correct"":false,""rt"":29199.89999999106},{""question_id"":""minivlat_11"",""question_type"":""choropleth"",""question_text"":""In 2015, the unemployment rate for Washington (WA) was higher than that of Wisconsin (WI)."",""response"":0,""correct_answer"":0,""is_correct"":true,""rt"":89143.90000000596},{""question_id"":""minivlat_12"",""question_type"":""bubble_chart_multi"",""question_text"":""For which website was the number of unique visitors the largest in 2010?"",""response"":0,""correct_answer"":3,""is_correct"":false,""rt"":28511.20000000298}]",,,1054165.599999994,,,,,,1235173,,,,12,4,,6,vis-literacy,,,,,,
,,,,,,,,,,,,,,,,,0.0-7.0,670f6171756d8d3b2a73e819,,,,,,,,,,,175741,,,,,,,1410915,,,,,,,7,instructions,,,,"[{""page_index"":0,""viewing_time"":175741}]",,
85,89,,,,condition_0_historical,Historical Only,Uncertain,2,,historical_only,,,,,,"[{""type"":""chart_enter"",""data"":{""timestamp"":774.1000000089407},""timestamp"":774.2000000029802},{""type"":""chart_hover"",""data"":{""x"":1008,""y"":536,""timestamp"":774.2999999970198},""timestamp"":774.2999999970198},{""type"":""chart_hover"",""data"":{""x"":1007,""y"":537,""timestamp"":791.1000000089407},""timestamp"":791.1000000089407},{""type"":""chart_hover"",""data"":{""x"":1006,""y"":537,""timestamp"":808.5},""timestamp"":808.5},{""type"":""chart_hover"",""data"":{""x"":1006,""y"":539,""timestamp"":823.7999999970198},""timestamp"":823.9000000059605},{""type"":""chart_hover"",""data"":{""x"":1005,""y"":540,""timestamp"":840.9000000059605},""timestamp"":840.9000000059605},{""type"":""chart_hover"",""data"":{""x"":1004,""y"":540,""timestamp"":857.2999999970198},""timestamp"":857.2999999970198},{""type"":""chart_hover"",""data"":{""x"":1003,""y"":542,""timestamp"":874},""timestamp"":874.1000000089407},{""type"":""chart_hover"",""data"":{""x"":1002,""y"":544,""timestamp"":890.2000000029802},""timestamp"":890.2000000029802},{""type"":""chart_hover"",""data"":{""x"":1000,""y"":546,""timestamp"":908.1000000089407},""timestamp"":908.1000000089407},{""type"":""chart_hover"",""data"":{""x"":998,""y"":548,""timestamp"":924.4000000059605},""timestamp"":924.4000000059605},{""type"":""chart_hover"",""data"":{""x"":996,""y"":550,""timestamp"":940.2999999970198},""timestamp"":940.2999999970198},{""type"":""chart_hover"",""data"":{""x"":994,""y"":552,""timestamp"":957.2999999970198},""timestamp"":957.2999999970198},{""type"":""chart_hover"",""data"":{""x"":992,""y"":555,""timestamp"":973.9000000059605},""timestamp"":973.9000000059605},{""type"":""chart_hover"",""data"":{""x"":992,""y"":556,""timestamp"":990.9000000059605},""timestamp"":990.9000000059605},{""type"":""chart_hover"",""data"":{""x"":988,""y"":561,""timestamp"":1007.9000000059605},""timestamp"":1007.9000000059605},{""type"":""chart_hover"",""data"":{""x"":985,""y"":565,""timestamp"":1024},""timestamp"":1024},{""type"":""chart_hover"",""data"":{""x"":981,""y"":570,""timestamp"":1041.2000000029802},""timestamp"":1041.2000000029802},{""type"":""chart_hover"",""data"":{""x"":978,""y"":574,""timestamp"":1058.2999999970198},""timestamp"":1058.4000000059605},{""type"":""chart_hover"",""data"":{""x"":969,""y"":583,""timestamp"":1096.6000000089407},""timestamp"":1096.6000000089407},{""type"":""chart_hover"",""data"":{""x"":968,""y"":584,""timestamp"":1102.7000000029802},""timestamp"":1102.7000000029802},{""type"":""chart_hover"",""data"":{""x"":967,""y"":585,""timestamp"":1110.9000000059605},""timestamp"":1110.9000000059605},{""type"":""chart_hover"",""data"":{""x"":965,""y"":587,""timestamp"":1124.9000000059605},""timestamp"":1124.9000000059605},{""type"":""chart_hover"",""data"":{""x"":962,""y"":590,""timestamp"":1141.7000000029802},""timestamp"":1141.7000000029802},{""type"":""chart_hover"",""data"":{""x"":956,""y"":595,""timestamp"":1158.5},""timestamp"":1158.5},{""type"":""chart_hover"",""data"":{""x"":953,""y"":598,""timestamp"":1174.7000000029802},""timestamp"":1174.7000000029802},{""type"":""chart_leave"",""data"":{""timestamp"":1191.2000000029802},""timestamp"":1191.2999999970198},{""type"":""chart_enter"",""data"":{""timestamp"":12087},""timestamp"":12087},{""type"":""chart_hover"",""data"":{""x"":960,""y"":580,""timestamp"":12087},""timestamp"":12087},{""type"":""chart_hover"",""data"":{""x"":959,""y"":550,""timestamp"":12104.60000000894},""timestamp"":12104.60000000894},{""type"":""chart_hover"",""data"":{""x"":957,""y"":533,""timestamp"":12122.20000000298},""timestamp"":12122.20000000298},{""type"":""chart_hover"",""data"":{""x"":957,""y"":512,""timestamp"":12145.29999999702},""timestamp"":12145.29999999702},{""type"":""chart_hover"",""data"":{""x"":957,""y"":499,""timestamp"":12163.79999999702},""timestamp"":12163.79999999702},{""type"":""chart_hover"",""data"":{""x"":957,""y"":484,""timestamp"":12182.90000000596},""timestamp"":12182.90000000596},{""type"":""chart_hover"",""data"":{""x"":957,""y"":468,""timestamp"":12195.60000000894},""timestamp"":12195.60000000894},{""type"":""chart_hover"",""data"":{""x"":957,""y"":455,""timestamp"":12207.20000000298},""timestamp"":12207.20000000298},{""type"":""chart_hover"",""data"":{""x"":957,""y"":449,""timestamp"":12218.60000000894},""timestamp"":12218.60000000894},{""type"":""chart_hover"",""data"":{""x"":956,""y"":441,""timestamp"":12236.20000000298},""timestamp"":12236.20000000298},{""type"":""chart_hover"",""data"":{""x"":956,""y"":431,""timestamp"":12253.20000000298},""timestamp"":12253.20000000298},{""type"":""chart_hover"",""data"":{""x"":955,""y"":421,""timestamp"":12270.29999999702},""timestamp"":12270.29999999702},{""type"":""chart_hover"",""data"":{""x"":955,""y"":406,""timestamp"":12287.40000000596},""timestamp"":12287.40000000596},{""type"":""chart_hover"",""data"":{""x"":955,""y"":397,""timestamp"":12304},""timestamp"":12304},{""type"":""chart_hover"",""data"":{""x"":955,""y"":388,""timestamp"":12319.79999999702},""timestamp"":12319.79999999702},{""type"":""chart_hover"",""data"":{""x"":955,""y"":381,""timestamp"":12337.20000000298},""timestamp"":12337.20000000298},{""type"":""chart_hover"",""data"":{""x"":955,""y"":374,""timestamp"":12354.40000000596},""timestamp"":12354.40000000596},{""type"":""chart_hover"",""data"":{""x"":955,""y"":368,""timestamp"":12370.79999999702},""timestamp"":12370.79999999702},{""type"":""chart_hover"",""data"":{""x"":955,""y"":362,""timestamp"":12387.5},""timestamp"":12387.5},{""type"":""chart_hover"",""data"":{""x"":955,""y"":358,""timestamp"":12404.20000000298},""timestamp"":12404.20000000298},{""type"":""chart_hover"",""data"":{""x"":955,""y"":353,""timestamp"":12420},""timestamp"":12420},{""type"":""chart_hover"",""data"":{""x"":955,""y"":349,""timestamp"":12437.10000000894},""timestamp"":12437.10000000894},{""type"":""chart_hover"",""data"":{""x"":955,""y"":344,""timestamp"":12452.90000000596},""timestamp"":12452.90000000596},{""type"":""chart_hover"",""data"":{""x"":955,""y"":338,""timestamp"":12477.70000000298},""timestamp"":12477.70000000298},{""type"":""chart_hover"",""data"":{""x"":955,""y"":337,""timestamp"":12485.5},""timestamp"":12485.5},{""type"":""chart_hover"",""data"":{""x"":955,""y"":332,""timestamp"":12502.5},""timestamp"":12502.5},{""type"":""chart_hover"",""data"":{""x"":955,""y"":330,""timestamp"":12518.70000000298},""timestamp"":12518.70000000298},{""type"":""chart_hover"",""data"":{""x"":955,""y"":329,""timestamp"":12535.70000000298},""timestamp"":12535.70000000298},{""type"":""chart_hover"",""data"":{""x"":955,""y"":327,""timestamp"":12552.90000000596},""timestamp"":12552.90000000596},{""type"":""chart_hover"",""data"":{""x"":955,""y"":325,""timestamp"":12569.29999999702},""timestamp"":12569.29999999702},{""type"":""chart_hover"",""data"":{""x"":955,""y"":324,""timestamp"":12586.10000000894},""timestamp"":12586.10000000894},{""type"":""chart_hover"",""data"":{""x"":955,""y"":323,""timestamp"":12602.70000000298},""timestamp"":12602.70000000298},{""type"":""chart_hover"",""data"":{""x"":955,""y"":322,""timestamp"":12628.40000000596},""timestamp"":12628.40000000596},{""type"":""chart_hover"",""data"":{""x"":955,""y"":321,""timestamp"":12711.5},""timestamp"":12711.5},{""type"":""chart_hover"",""data"":{""x"":955,""y"":320,""timestamp"":12753.29999999702},""timestamp"":12753.29999999702},{""type"":""chart_hover"",""data"":{""x"":955,""y"":319,""timestamp"":12783},""timestamp"":12783},{""type"":""chart_hover"",""data"":{""x"":955,""y"":318,""timestamp"":12847.5},""timestamp"":12847.5},{""type"":""chart_hover"",""data"":{""x"":955,""y"":317,""timestamp"":12886.79999999702},""timestamp"":12886.79999999702},{""type"":""chart_hover"",""data"":{""x"":955,""y"":316,""timestamp"":12911.20000000298},""timestamp"":12911.20000000298},{""type"":""chart_hover"",""data"":{""x"":955,""y"":315,""timestamp"":12934.90000000596},""timestamp"":12935},{""type"":""chart_hover"",""data"":{""x"":955,""y"":314,""timestamp"":12950.90000000596},""timestamp"":12950.90000000596},{""type"":""chart_hover"",""data"":{""x"":955,""y"":313,""timestamp"":12958.90000000596},""timestamp"":12958.90000000596},{""type"":""chart_hover"",""data"":{""x"":955,""y"":312,""timestamp"":12974.90000000596},""timestamp"":12974.90000000596},{""type"":""chart_hover"",""data"":{""x"":955,""y"":311,""timestamp"":12990.90000000596},""timestamp"":12990.90000000596},{""type"":""chart_hover"",""data"":{""x"":955,""y"":309,""timestamp"":13006.79999999702},""timestamp"":13006.79999999702},{""type"":""chart_hover"",""data"":{""x"":955,""y"":308,""timestamp"":13022.90000000596},""timestamp"":13022.90000000596},{""type"":""chart_hover"",""data"":{""x"":955,""y"":307,""timestamp"":13038.90000000596},""timestamp"":13038.90000000596},{""type"":""chart_hover"",""data"":{""x"":955,""y"":306,""timestamp"":13054.29999999702},""timestamp"":13054.29999999702},{""type"":""chart_hover"",""data"":{""x"":955,""y"":303,""timestamp"":13070.79999999702},""timestamp"":13070.79999999702},{""type"":""chart_hover"",""data"":{""x"":955,""y"":302,""timestamp"":13087.90000000596},""timestamp"":13087.90000000596},{""type"":""chart_hover"",""data"":{""x"":955,""y"":301,""timestamp"":13104},""timestamp"":13104},{""type"":""chart_hover"",""data"":{""x"":955,""y"":300,""timestamp"":13121.20000000298},""timestamp"":13121.20000000298},{""type"":""chart_hover"",""data"":{""x"":955,""y"":298,""timestamp"":13138.29999999702},""timestamp"":13138.29999999702},{""type"":""chart_hover"",""data"":{""x"":955,""y"":297,""timestamp"":13154.5},""timestamp"":13154.5},{""type"":""chart_hover"",""data"":{""x"":956,""y"":296,""timestamp"":13171.70000000298},""timestamp"":13171.70000000298},{""type"":""chart_hover"",""data"":{""x"":956,""y"":295,""timestamp"":13187.70000000298},""timestamp"":13187.70000000298},{""type"":""chart_hover"",""data"":{""x"":956,""y"":294,""timestamp"":13206.90000000596},""timestamp"":13206.90000000596},{""type"":""chart_hover"",""data"":{""x"":956,""y"":293,""timestamp"":13254.40000000596},""timestamp"":13254.40000000596},{""type"":""chart_hover"",""data"":{""x"":957,""y"":293,""timestamp"":13271.70000000298},""timestamp"":13271.70000000298},{""type"":""chart_hover"",""data"":{""x"":957,""y"":292,""timestamp"":13288.70000000298},""timestamp"":13288.70000000298},{""type"":""chart_hover"",""data"":{""x"":957,""y"":291,""timestamp"":13310.90000000596},""timestamp"":13310.90000000596},{""type"":""chart_hover"",""data"":{""x"":957,""y"":290,""timestamp"":13383.60000000894},""timestamp"":13383.60000000894},{""type"":""chart_hover"",""data"":{""x"":957,""y"":289,""timestamp"":13423.40000000596},""timestamp"":13423.40000000596},{""type"":""chart_hover"",""data"":{""x"":958,""y"":289,""timestamp"":13446.60000000894},""timestamp"":13446.60000000894},{""type"":""chart_hover"",""data"":{""x"":958,""y"":288,""timestamp"":13470.90000000596},""timestamp"":13470.90000000596},{""type"":""chart_hover"",""data"":{""x"":958,""y"":287,""timestamp"":13505.40000000596},""timestamp"":13505.40000000596},{""type"":""chart_hover"",""data"":{""x"":958,""y"":286,""timestamp"":13526.79999999702},""timestamp"":13526.79999999702},{""type"":""chart_hover"",""data"":{""x"":959,""y"":286,""timestamp"":13538.90000000596},""timestamp"":13538.90000000596},{""type"":""chart_hover"",""data"":{""x"":959,""y"":285,""timestamp"":13631.29999999702},""timestamp"":13631.29999999702},{""type"":""chart_hover"",""data"":{""x"":960,""y"":285,""timestamp"":13647},""timestamp"":13647},{""type"":""chart_hover"",""data"":{""x"":961,""y"":284,""timestamp"":13663.29999999702},""timestamp"":13663.29999999702},{""type"":""chart_hover"",""data"":{""x"":963,""y"":283,""timestamp"":13706.60000000894},""timestamp"":13706.60000000894},{""type"":""chart_hover"",""data"":{""x"":964,""y"":282,""timestamp"":13722.70000000298},""timestamp"":13722.70000000298},{""type"":""chart_hover"",""data"":{""x"":965,""y"":282,""timestamp"":13742.70000000298},""timestamp"":13742.70000000298},{""type"":""chart_hover"",""data"":{""x"":965,""y"":281,""timestamp"":13755.79999999702},""timestamp"":13755.79999999702},{""type"":""chart_hover"",""data"":{""x"":967,""y"":281,""timestamp"":13772.90000000596},""timestamp"":13772.90000000596},{""type"":""chart_hover"",""data"":{""x"":967,""y"":280,""timestamp"":13789.90000000596},""timestamp"":13790},{""type"":""chart_hover"",""data"":{""x"":968,""y"":280,""timestamp"":13806},""timestamp"":13806},{""type"":""chart_hover"",""data"":{""x"":969,""y"":279,""timestamp"":13822.70000000298},""timestamp"":13822.70000000298},{""type"":""chart_hover"",""data"":{""x"":970,""y"":279,""timestamp"":13846.70000000298},""timestamp"":13846.70000000298},{""type"":""chart_hover"",""data"":{""x"":971,""y"":279,""timestamp"":13857},""timestamp"":13857},{""type"":""chart_hover"",""data"":{""x"":972,""y"":279,""timestamp"":13943.40000000596},""timestamp"":13943.40000000596},{""type"":""chart_hover"",""data"":{""x"":973,""y"":279,""timestamp"":13958.90000000596},""timestamp"":13958.90000000596},{""type"":""chart_hover"",""data"":{""x"":974,""y"":279,""timestamp"":13974},""timestamp"":13974},{""type"":""chart_hover"",""data"":{""x"":976,""y"":278,""timestamp"":13990},""timestamp"":13990},{""type"":""chart_hover"",""data"":{""x"":978,""y"":278,""timestamp"":14006.90000000596},""timestamp"":14006.90000000596},{""type"":""chart_hover"",""data"":{""x"":979,""y"":278,""timestamp"":14127.40000000596},""timestamp"":14127.40000000596},{""type"":""chart_hover"",""data"":{""x"":980,""y"":277,""timestamp"":14173.90000000596},""timestamp"":14173.90000000596},{""type"":""chart_hover"",""data"":{""x"":981,""y"":277,""timestamp"":14191},""timestamp"":14191},{""type"":""chart_hover"",""data"":{""x"":982,""y"":276,""timestamp"":14208},""timestamp"":14208},{""type"":""chart_hover"",""data"":{""x"":982,""y"":275,""timestamp"":14238.70000000298},""timestamp"":14238.70000000298},{""type"":""chart_hover"",""data"":{""x"":983,""y"":275,""timestamp"":14247},""timestamp"":14247},{""type"":""chart_hover"",""data"":{""x"":983,""y"":274,""timestamp"":14257.90000000596},""timestamp"":14257.90000000596},{""type"":""chart_hover"",""data"":{""x"":984,""y"":273,""timestamp"":14307.70000000298},""timestamp"":14307.70000000298},{""type"":""chart_hover"",""data"":{""x"":984,""y"":272,""timestamp"":14358.90000000596},""timestamp"":14358.90000000596},{""type"":""chart_hover"",""data"":{""x"":985,""y"":272,""timestamp"":14374.40000000596},""timestamp"":14374.40000000596},{""type"":""chart_hover"",""data"":{""x"":985,""y"":271,""timestamp"":14391.40000000596},""timestamp"":14391.40000000596},{""type"":""chart_hover"",""data"":{""x"":985,""y"":270,""timestamp"":14441.79999999702},""timestamp"":14441.79999999702},{""type"":""chart_hover"",""data"":{""x"":985,""y"":269,""timestamp"":14462.90000000596},""timestamp"":14462.90000000596},{""type"":""chart_hover"",""data"":{""x"":985,""y"":268,""timestamp"":14508.5},""timestamp"":14508.5},{""type"":""chart_hover"",""data"":{""x"":985,""y"":267,""timestamp"":14880},""timestamp"":14880},{""type"":""chart_hover"",""data"":{""x"":985,""y"":266,""timestamp"":14903.20000000298},""timestamp"":14903.20000000298},{""type"":""chart_hover"",""data"":{""x"":984,""y"":266,""timestamp"":14999.5},""timestamp"":14999.5},{""type"":""chart_hover"",""data"":{""x"":984,""y"":265,""timestamp"":15047.29999999702},""timestamp"":15047.29999999702},{""type"":""chart_hover"",""data"":{""x"":983,""y"":265,""timestamp"":15095.10000000894},""timestamp"":15095.10000000894},{""type"":""chart_hover"",""data"":{""x"":981,""y"":265,""timestamp"":15143.90000000596},""timestamp"":15144},{""type"":""chart_hover"",""data"":{""x"":980,""y"":265,""timestamp"":15175.10000000894},""timestamp"":15175.10000000894},{""type"":""chart_hover"",""data"":{""x"":979,""y"":266,""timestamp"":15210.60000000894},""timestamp"":15210.60000000894},{""type"":""chart_hover"",""data"":{""x"":977,""y"":267,""timestamp"":15227.70000000298},""timestamp"":15227.70000000298},{""type"":""chart_hover"",""data"":{""x"":974,""y"":270,""timestamp"":15243.70000000298},""timestamp"":15243.70000000298},{""type"":""chart_hover"",""data"":{""x"":972,""y"":273,""timestamp"":15260.79999999702},""timestamp"":15260.79999999702},{""type"":""chart_hover"",""data"":{""x"":970,""y"":276,""timestamp"":15277.79999999702},""timestamp"":15277.79999999702},{""type"":""chart_hover"",""data"":{""x"":968,""y"":278,""timestamp"":15293.90000000596},""timestamp"":15293.90000000596},{""type"":""chart_hover"",""data"":{""x"":965,""y"":283,""timestamp"":15310.70000000298},""timestamp"":15310.70000000298},{""type"":""chart_hover"",""data"":{""x"":964,""y"":286,""timestamp"":15327.10000000894},""timestamp"":15327.10000000894},{""type"":""chart_hover"",""data"":{""x"":961,""y"":290,""timestamp"":15344.20000000298},""timestamp"":15344.20000000298},{""type"":""chart_hover"",""data"":{""x"":958,""y"":295,""timestamp"":15361.29999999702},""timestamp"":15361.29999999702},{""type"":""chart_hover"",""data"":{""x"":954,""y"":304,""timestamp"":15377.29999999702},""timestamp"":15377.29999999702},{""type"":""chart_hover"",""data"":{""x"":952,""y"":308,""timestamp"":15394.40000000596},""timestamp"":15394.40000000596},{""type"":""chart_hover"",""data"":{""x"":950,""y"":315,""timestamp"":15411.40000000596},""timestamp"":15411.5},{""type"":""chart_hover"",""data"":{""x"":948,""y"":321,""timestamp"":15427.60000000894},""timestamp"":15427.60000000894},{""type"":""chart_hover"",""data"":{""x"":947,""y"":327,""timestamp"":15444.90000000596},""timestamp"":15444.90000000596},{""type"":""chart_hover"",""data"":{""x"":945,""y"":334,""timestamp"":15461.20000000298},""timestamp"":15461.20000000298},{""type"":""chart_hover"",""data"":{""x"":943,""y"":340,""timestamp"":15478.40000000596},""timestamp"":15478.40000000596},{""type"":""chart_hover"",""data"":{""x"":941,""y"":347,""timestamp"":15494.40000000596},""timestamp"":15494.40000000596},{""type"":""chart_hover"",""data"":{""x"":940,""y"":357,""timestamp"":15510.79999999702},""timestamp"":15510.79999999702},{""type"":""chart_hover"",""data"":{""x"":939,""y"":364,""timestamp"":15527.90000000596},""timestamp"":15527.90000000596},{""type"":""chart_hover"",""data"":{""x"":939,""y"":369,""timestamp"":15545},""timestamp"":15545},{""type"":""chart_hover"",""data"":{""x"":937,""y"":374,""timestamp"":15561.90000000596},""timestamp"":15561.90000000596},{""type"":""chart_hover"",""data"":{""x"":937,""y"":378,""timestamp"":15577.90000000596},""timestamp"":15577.90000000596},{""type"":""chart_hover"",""data"":{""x"":936,""y"":385,""timestamp"":15595},""timestamp"":15595},{""type"":""chart_hover"",""data"":{""x"":936,""y"":390,""timestamp"":15612},""timestamp"":15612},{""type"":""chart_hover"",""data"":{""x"":935,""y"":394,""timestamp"":15628.10000000894},""timestamp"":15628.10000000894},{""type"":""chart_hover"",""data"":{""x"":935,""y"":397,""timestamp"":15645.10000000894},""timestamp"":15645.10000000894},{""type"":""chart_hover"",""data"":{""x"":935,""y"":401,""timestamp"":15662.5},""timestamp"":15662.5},{""type"":""chart_hover"",""data"":{""x"":935,""y"":406,""timestamp"":15678.5},""timestamp"":15678.5},{""type"":""chart_hover"",""data"":{""x"":934,""y"":408,""timestamp"":15694.70000000298},""timestamp"":15694.70000000298},{""type"":""chart_hover"",""data"":{""x"":934,""y"":411,""timestamp"":15711.79999999702},""timestamp"":15711.90000000596},{""type"":""chart_hover"",""data"":{""x"":934,""y"":414,""timestamp"":15729.29999999702},""timestamp"":15729.29999999702},{""type"":""chart_hover"",""data"":{""x"":934,""y"":417,""timestamp"":15745.90000000596},""timestamp"":15745.90000000596},{""type"":""chart_hover"",""data"":{""x"":934,""y"":418,""timestamp"":15761.90000000596},""timestamp"":15761.90000000596},{""type"":""chart_hover"",""data"":{""x"":934,""y"":420,""timestamp"":15779.70000000298},""timestamp"":15779.79999999702},{""type"":""chart_hover"",""data"":{""x"":934,""y"":424,""timestamp"":15796},""timestamp"":15796.10000000894},{""type"":""chart_hover"",""data"":{""x"":934,""y"":427,""timestamp"":15812},""timestamp"":15812},{""type"":""chart_hover"",""data"":{""x"":934,""y"":429,""timestamp"":15829},""timestamp"":15829},{""type"":""chart_hover"",""data"":{""x"":934,""y"":430,""timestamp"":15846},""timestamp"":15846},{""type"":""chart_hover"",""data"":{""x"":934,""y"":431,""timestamp"":15862.10000000894},""timestamp"":15862.10000000894},{""type"":""chart_hover"",""data"":{""x"":934,""y"":432,""timestamp"":15879.10000000894},""timestamp"":15879.20000000298},{""type"":""chart_hover"",""data"":{""x"":934,""y"":433,""timestamp"":15896.79999999702},""timestamp"":15896.79999999702},{""type"":""chart_hover"",""data"":{""x"":934,""y"":434,""timestamp"":15927.20000000298},""timestamp"":15927.20000000298},{""type"":""chart_hover"",""data"":{""x"":933,""y"":434,""timestamp"":16095},""timestamp"":16095},{""type"":""chart_hover"",""data"":{""x"":933,""y"":436,""timestamp"":16102.29999999702},""timestamp"":16102.29999999702},{""type"":""chart_hover"",""data"":{""x"":933,""y"":437,""timestamp"":16117.90000000596},""timestamp"":16117.90000000596},{""type"":""chart_hover"",""data"":{""x"":933,""y"":439,""timestamp"":16134},""timestamp"":16134},{""type"":""chart_hover"",""data"":{""x"":933,""y"":440,""timestamp"":16150.5},""timestamp"":16150.5},{""type"":""chart_hover"",""data"":{""x"":933,""y"":442,""timestamp"":16164},""timestamp"":16164},{""type"":""chart_hover"",""data"":{""x"":932,""y"":448,""timestamp"":16180.20000000298},""timestamp"":16180.20000000298},{""type"":""chart_hover"",""data"":{""x"":932,""y"":456,""timestamp"":16197.10000000894},""timestamp"":16197.10000000894},{""type"":""chart_hover"",""data"":{""x"":932,""y"":464,""timestamp"":16213.10000000894},""timestamp"":16213.10000000894},{""type"":""chart_hover"",""data"":{""x"":932,""y"":475,""timestamp"":16230.40000000596},""timestamp"":16230.40000000596},{""type"":""chart_hover"",""data"":{""x"":933,""y"":498,""timestamp"":16247},""timestamp"":16247},{""type"":""chart_hover"",""data"":{""x"":937,""y"":515,""timestamp"":16264},""timestamp"":16264},{""type"":""chart_hover"",""data"":{""x"":941,""y"":529,""timestamp"":16280.10000000894},""timestamp"":16280.10000000894},{""type"":""chart_hover"",""data"":{""x"":946,""y"":544,""timestamp"":16297.20000000298},""timestamp"":16297.20000000298},{""type"":""chart_hover"",""data"":{""x"":952,""y"":560,""timestamp"":16313.29999999702},""timestamp"":16313.29999999702},{""type"":""chart_hover"",""data"":{""x"":957,""y"":572,""timestamp"":16330.20000000298},""timestamp"":16330.20000000298},{""type"":""chart_hover"",""data"":{""x"":960,""y"":585,""timestamp"":16347.29999999702},""timestamp"":16347.29999999702},{""type"":""chart_hover"",""data"":{""x"":961,""y"":592,""timestamp"":16363.79999999702},""timestamp"":16363.79999999702},{""type"":""chart_hover"",""data"":{""x"":961,""y"":595,""timestamp"":16380.90000000596},""timestamp"":16380.90000000596},{""type"":""chart_hover"",""data"":{""x"":960,""y"":595,""timestamp"":16397},""timestamp"":16397},{""type"":""chart_hover"",""data"":{""x"":957,""y"":593,""timestamp"":16414.10000000894},""timestamp"":16414.10000000894},{""type"":""chart_hover"",""data"":{""x"":958,""y"":594,""timestamp"":16567.10000000894},""timestamp"":16567.10000000894},{""type"":""chart_hover"",""data"":{""x"":959,""y"":594,""timestamp"":16582.60000000894},""timestamp"":16582.60000000894},{""type"":""chart_hover"",""data"":{""x"":960,""y"":595,""timestamp"":16597.60000000894},""timestamp"":16597.60000000894},{""type"":""chart_hover"",""data"":{""x"":960,""y"":598,""timestamp"":16614.60000000894},""timestamp"":16614.60000000894},{""type"":""chart_leave"",""data"":{""timestamp"":16631.20000000298},""timestamp"":16631.20000000298},{""type"":""chart_enter"",""data"":{""timestamp"":18061},""timestamp"":18061},{""type"":""chart_hover"",""data"":{""x"":955,""y"":598,""timestamp"":18061},""timestamp"":18061},{""type"":""chart_hover"",""data"":{""x"":947,""y"":548,""timestamp"":18077.90000000596},""timestamp"":18077.90000000596},{""type"":""chart_hover"",""data"":{""x"":940,""y"":466,""timestamp"":18111.90000000596},""timestamp"":18111.90000000596},{""type"":""chart_hover"",""data"":{""x"":940,""y"":444,""timestamp"":18113.60000000894},""timestamp"":18113.60000000894},{""type"":""chart_hover"",""data"":{""x"":942,""y"":409,""timestamp"":18129.60000000894},""timestamp"":18129.60000000894},{""type"":""chart_hover"",""data"":{""x"":943,""y"":383,""timestamp"":18146.20000000298},""timestamp"":18146.20000000298},{""type"":""chart_hover"",""data"":{""x"":944,""y"":363,""timestamp"":18162.79999999702},""timestamp"":18162.79999999702},{""type"":""chart_hover"",""data"":{""x"":946,""y"":353,""timestamp"":18178.5},""timestamp"":18178.5},{""type"":""chart_hover"",""data"":{""x"":946,""y"":350,""timestamp"":18195.20000000298},""timestamp"":18195.29999999702},{""type"":""chart_hover"",""data"":{""x"":946,""y"":347,""timestamp"":18211.60000000894},""timestamp"":18211.60000000894},{""type"":""chart_hover"",""data"":{""x"":946,""y"":344,""timestamp"":18229.70000000298},""timestamp"":18229.70000000298},{""type"":""chart_hover"",""data"":{""x"":946,""y"":342,""timestamp"":18246.40000000596},""timestamp"":18246.40000000596},{""type"":""chart_hover"",""data"":{""x"":946,""y"":340,""timestamp"":18262.20000000298},""timestamp"":18262.20000000298},{""type"":""chart_hover"",""data"":{""x"":947,""y"":340,""timestamp"":18312.20000000298},""timestamp"":18312.20000000298},{""type"":""chart_hover"",""data"":{""x"":947,""y"":339,""timestamp"":18328.90000000596},""timestamp"":18328.90000000596},{""type"":""chart_hover"",""data"":{""x"":948,""y"":339,""timestamp"":18346.10000000894},""timestamp"":18346.10000000894},{""type"":""chart_hover"",""data"":{""x"":949,""y"":338,""timestamp"":18362.40000000596},""timestamp"":18362.40000000596},{""type"":""chart_hover"",""data"":{""x"":949,""y"":337,""timestamp"":18379.60000000894},""timestamp"":18379.60000000894},{""type"":""chart_hover"",""data"":{""x"":952,""y"":335,""timestamp"":18395.5},""timestamp"":18395.5},{""type"":""chart_hover"",""data"":{""x"":954,""y"":334,""timestamp"":18413.10000000894},""timestamp"":18413.10000000894},{""type"":""chart_hover"",""data"":{""x"":958,""y"":329,""timestamp"":18431.10000000894},""timestamp"":18431.10000000894},{""type"":""chart_hover"",""data"":{""x"":959,""y"":329,""timestamp"":18445.90000000596},""timestamp"":18445.90000000596},{""type"":""chart_hover"",""data"":{""x"":960,""y"":326,""timestamp"":18461.79999999702},""timestamp"":18461.79999999702},{""type"":""chart_hover"",""data"":{""x"":961,""y"":325,""timestamp"":18478.60000000894},""timestamp"":18478.60000000894},{""type"":""chart_hover"",""data"":{""x"":961,""y"":323,""timestamp"":18495.90000000596},""timestamp"":18495.90000000596},{""type"":""chart_hover"",""data"":{""x"":961,""y"":322,""timestamp"":18511.79999999702},""timestamp"":18511.79999999702},{""type"":""chart_hover"",""data"":{""x"":962,""y"":321,""timestamp"":18529},""timestamp"":18529},{""type"":""chart_hover"",""data"":{""x"":962,""y"":318,""timestamp"":18546.10000000894},""timestamp"":18546.10000000894},{""type"":""chart_hover"",""data"":{""x"":962,""y"":315,""timestamp"":18562.20000000298},""timestamp"":18562.20000000298},{""type"":""chart_hover"",""data"":{""x"":962,""y"":314,""timestamp"":18578.79999999702},""timestamp"":18578.79999999702},{""type"":""chart_hover"",""data"":{""x"":962,""y"":312,""timestamp"":18595.79999999702},""timestamp"":18595.79999999702},{""type"":""chart_hover"",""data"":{""x"":963,""y"":311,""timestamp"":18613},""timestamp"":18613},{""type"":""chart_hover"",""data"":{""x"":964,""y"":308,""timestamp"":18629.10000000894},""timestamp"":18629.10000000894},{""type"":""chart_hover"",""data"":{""x"":964,""y"":305,""timestamp"":18645.60000000894},""timestamp"":18645.60000000894},{""type"":""chart_hover"",""data"":{""x"":965,""y"":302,""timestamp"":18662.79999999702},""timestamp"":18662.79999999702},{""type"":""chart_hover"",""data"":{""x"":965,""y"":300,""timestamp"":18680},""timestamp"":18680},{""type"":""chart_hover"",""data"":{""x"":965,""y"":299,""timestamp"":18696.70000000298},""timestamp"":18696.70000000298},{""type"":""chart_hover"",""data"":{""x"":965,""y"":298,""timestamp"":18718.79999999702},""timestamp"":18718.79999999702},{""type"":""chart_hover"",""data"":{""x"":965,""y"":297,""timestamp"":18730.70000000298},""timestamp"":18730.70000000298},{""type"":""chart_hover"",""data"":{""x"":966,""y"":296,""timestamp"":18746.79999999702},""timestamp"":18746.79999999702},{""type"":""chart_hover"",""data"":{""x"":966,""y"":295,""timestamp"":18762.70000000298},""timestamp"":18762.70000000298},{""type"":""chart_hover"",""data"":{""x"":967,""y"":295,""timestamp"":18779.79999999702},""timestamp"":18779.79999999702},{""type"":""chart_hover"",""data"":{""x"":967,""y"":294,""timestamp"":18796.90000000596},""timestamp"":18796.90000000596},{""type"":""chart_hover"",""data"":{""x"":967,""y"":293,""timestamp"":18813.10000000894},""timestamp"":18813.10000000894},{""type"":""chart_hover"",""data"":{""x"":967,""y"":292,""timestamp"":18830},""timestamp"":18830},{""type"":""chart_hover"",""data"":{""x"":968,""y"":291,""timestamp"":18846.10000000894},""timestamp"":18846.10000000894},{""type"":""chart_hover"",""data"":{""x"":968,""y"":290,""timestamp"":18864.79999999702},""timestamp"":18864.79999999702},{""type"":""chart_hover"",""data"":{""x"":968,""y"":289,""timestamp"":18880},""timestamp"":18880},{""type"":""chart_hover"",""data"":{""x"":969,""y"":289,""timestamp"":18896.5},""timestamp"":18896.5},{""type"":""chart_hover"",""data"":{""x"":969,""y"":288,""timestamp"":18913.79999999702},""timestamp"":18913.79999999702},{""type"":""chart_hover"",""data"":{""x"":969,""y"":287,""timestamp"":18934.70000000298},""timestamp"":18934.70000000298},{""type"":""chart_hover"",""data"":{""x"":970,""y"":287,""timestamp"":18947},""timestamp"":18947},{""type"":""chart_hover"",""data"":{""x"":970,""y"":286,""timestamp"":18963.5},""timestamp"":18963.5},{""type"":""chart_hover"",""data"":{""x"":971,""y"":286,""timestamp"":18983},""timestamp"":18983},{""type"":""chart_hover"",""data"":{""x"":971,""y"":285,""timestamp"":18998.79999999702},""timestamp"":18998.79999999702},{""type"":""chart_hover"",""data"":{""x"":971,""y"":284,""timestamp"":19047.10000000894},""timestamp"":19047.10000000894},{""type"":""chart_hover"",""data"":{""x"":972,""y"":284,""timestamp"":19087.29999999702},""timestamp"":19087.29999999702},{""type"":""chart_click"",""data"":{""x"":972,""y"":284,""timestamp"":19278.60000000894},""timestamp"":19278.60000000894},{""type"":""chart_click"",""data"":{""x"":972,""y"":284,""timestamp"":19550.20000000298},""timestamp"":19550.20000000298},{""type"":""chart_hover"",""data"":{""x"":974,""y"":284,""timestamp"":19848.20000000298},""timestamp"":19848.20000000298},{""type"":""chart_click"",""data"":{""x"":974,""y"":284,""timestamp"":19950.20000000298},""timestamp"":19950.20000000298},{""type"":""chart_hover"",""data"":{""x"":984,""y"":484,""timestamp"":20969.90000000596},""timestamp"":20969.90000000596},{""type"":""chart_hover"",""data"":{""x"":984,""y"":485,""timestamp"":21031.60000000894},""timestamp"":21031.60000000894},{""type"":""chart_hover"",""data"":{""x"":984,""y"":486,""timestamp"":21159.60000000894},""timestamp"":21159.60000000894},{""type"":""chart_hover"",""data"":{""x"":983,""y"":486,""timestamp"":21169.5},""timestamp"":21169.5},{""type"":""chart_hover"",""data"":{""x"":983,""y"":487,""timestamp"":21186.60000000894},""timestamp"":21186.70000000298},{""type"":""chart_hover"",""data"":{""x"":984,""y"":488,""timestamp"":21206.5},""timestamp"":21206.5},{""type"":""chart_hover"",""data"":{""x"":985,""y"":489,""timestamp"":21230.90000000596},""timestamp"":21230.90000000596},{""type"":""chart_hover"",""data"":{""x"":985,""y"":490,""timestamp"":21238.70000000298},""timestamp"":21238.70000000298},{""type"":""chart_hover"",""data"":{""x"":986,""y"":490,""timestamp"":21253.90000000596},""timestamp"":21253.90000000596},{""type"":""chart_hover"",""data"":{""x"":987,""y"":491,""timestamp"":21270.20000000298},""timestamp"":21270.20000000298},{""type"":""chart_hover"",""data"":{""x"":988,""y"":493,""timestamp"":21286.79999999702},""timestamp"":21286.79999999702},{""type"":""chart_hover"",""data"":{""x"":989,""y"":495,""timestamp"":21304},""timestamp"":21304},{""type"":""chart_hover"",""data"":{""x"":990,""y"":498,""timestamp"":21321},""timestamp"":21321},{""type"":""chart_hover"",""data"":{""x"":992,""y"":500,""timestamp"":21336.90000000596},""timestamp"":21336.90000000596},{""type"":""chart_hover"",""data"":{""x"":993,""y"":503,""timestamp"":21354},""timestamp"":21354},{""type"":""chart_hover"",""data"":{""x"":995,""y"":507,""timestamp"":21371},""timestamp"":21371},{""type"":""chart_hover"",""data"":{""x"":995,""y"":510,""timestamp"":21387.10000000894},""timestamp"":21387.10000000894},{""type"":""chart_hover"",""data"":{""x"":996,""y"":513,""timestamp"":21404.10000000894},""timestamp"":21404.10000000894},{""type"":""chart_hover"",""data"":{""x"":996,""y"":515,""timestamp"":21420.70000000298},""timestamp"":21420.70000000298},{""type"":""chart_hover"",""data"":{""x"":997,""y"":517,""timestamp"":21437.70000000298},""timestamp"":21437.70000000298},{""type"":""chart_hover"",""data"":{""x"":997,""y"":519,""timestamp"":21453.79999999702},""timestamp"":21453.79999999702},{""type"":""chart_hover"",""data"":{""x"":997,""y"":524,""timestamp"":21471.10000000894},""timestamp"":21471.10000000894},{""type"":""chart_hover"",""data"":{""x"":998,""y"":528,""timestamp"":21487.20000000298},""timestamp"":21487.20000000298},{""type"":""chart_hover"",""data"":{""x"":998,""y"":531,""timestamp"":21503.70000000298},""timestamp"":21503.70000000298},{""type"":""chart_hover"",""data"":{""x"":998,""y"":535,""timestamp"":21521},""timestamp"":21521},{""type"":""chart_hover"",""data"":{""x"":998,""y"":540,""timestamp"":21538},""timestamp"":21538},{""type"":""chart_hover"",""data"":{""x"":999,""y"":542,""timestamp"":21554.79999999702},""timestamp"":21554.79999999702},{""type"":""chart_hover"",""data"":{""x"":999,""y"":546,""timestamp"":21570.90000000596},""timestamp"":21570.90000000596},{""type"":""chart_hover"",""data"":{""x"":999,""y"":550,""timestamp"":21588.10000000894},""timestamp"":21588.10000000894},{""type"":""chart_hover"",""data"":{""x"":999,""y"":553,""timestamp"":21604},""timestamp"":21604},{""type"":""chart_hover"",""data"":{""x"":999,""y"":558,""timestamp"":21621.10000000894},""timestamp"":21621.10000000894},{""type"":""chart_hover"",""data"":{""x"":999,""y"":561,""timestamp"":21638},""timestamp"":21638},{""type"":""chart_hover"",""data"":{""x"":999,""y"":567,""timestamp"":21655.10000000894},""timestamp"":21655.10000000894},{""type"":""chart_hover"",""data"":{""x"":999,""y"":570,""timestamp"":21671.79999999702},""timestamp"":21671.79999999702},{""type"":""chart_hover"",""data"":{""x"":997,""y"":574,""timestamp"":21687.79999999702},""timestamp"":21687.79999999702},{""type"":""chart_hover"",""data"":{""x"":996,""y"":579,""timestamp"":21705},""timestamp"":21705},{""type"":""chart_hover"",""data"":{""x"":992,""y"":589,""timestamp"":21722.10000000894},""timestamp"":21722.10000000894},{""type"":""chart_hover"",""data"":{""x"":987,""y"":598,""timestamp"":21738.29999999702},""timestamp"":21738.29999999702},{""type"":""chart_leave"",""data"":{""timestamp"":21755.29999999702},""timestamp"":21755.40000000596},{""type"":""chart_enter"",""data"":{""timestamp"":41536.10000000894},""timestamp"":41536.10000000894},{""type"":""chart_hover"",""data"":{""x"":740,""y"":573,""timestamp"":41536.10000000894},""timestamp"":41536.10000000894},{""type"":""chart_hover"",""data"":{""x"":779,""y"":535,""timestamp"":41558.5},""timestamp"":41558.5},{""type"":""chart_hover"",""data"":{""x"":805,""y"":504,""timestamp"":41592.90000000596},""timestamp"":41592.90000000596},{""type"":""chart_hover"",""data"":{""x"":826,""y"":478,""timestamp"":41617.29999999702},""timestamp"":41617.29999999702},{""type"":""chart_hover"",""data"":{""x"":834,""y"":462,""timestamp"":41635.10000000894},""timestamp"":41635.10000000894},{""type"":""chart_hover"",""data"":{""x"":842,""y"":448,""timestamp"":41648.10000000894},""timestamp"":41648.10000000894},{""type"":""chart_hover"",""data"":{""x"":844,""y"":443,""timestamp"":41660.10000000894},""timestamp"":41660.10000000894},{""type"":""chart_hover"",""data"":{""x"":850,""y"":431,""timestamp"":41672.10000000894},""timestamp"":41672.10000000894},{""type"":""chart_hover"",""data"":{""x"":856,""y"":422,""timestamp"":41687.5},""timestamp"":41687.5},{""type"":""chart_hover"",""data"":{""x"":861,""y"":414,""timestamp"":41703.79999999702},""timestamp"":41703.79999999702},{""type"":""chart_hover"",""data"":{""x"":868,""y"":404,""timestamp"":41720.20000000298},""timestamp"":41720.29999999702},{""type"":""chart_hover"",""data"":{""x"":874,""y"":397,""timestamp"":41738.40000000596},""timestamp"":41738.40000000596},{""type"":""chart_hover"",""data"":{""x"":878,""y"":391,""timestamp"":41754.60000000894},""timestamp"":41754.60000000894},{""type"":""chart_hover"",""data"":{""x"":883,""y"":384,""timestamp"":41770.79999999702},""timestamp"":41770.79999999702},{""type"":""chart_hover"",""data"":{""x"":889,""y"":377,""timestamp"":41787.70000000298},""timestamp"":41787.70000000298},{""type"":""chart_hover"",""data"":{""x"":894,""y"":371,""timestamp"":41803.79999999702},""timestamp"":41803.79999999702},{""type"":""chart_hover"",""data"":{""x"":900,""y"":364,""timestamp"":41821.10000000894},""timestamp"":41821.10000000894},{""type"":""chart_hover"",""data"":{""x"":907,""y"":357,""timestamp"":41838.20000000298},""timestamp"":41838.20000000298},{""type"":""chart_hover"",""data"":{""x"":919,""y"":345,""timestamp"":41855},""timestamp"":41855},{""type"":""chart_hover"",""data"":{""x"":927,""y"":340,""timestamp"":41871.29999999702},""timestamp"":41871.40000000596},{""type"":""chart_hover"",""data"":{""x"":934,""y"":333,""timestamp"":41887.29999999702},""timestamp"":41887.29999999702},{""type"":""chart_hover"",""data"":{""x"":941,""y"":326,""timestamp"":41904},""timestamp"":41904},{""type"":""chart_hover"",""data"":{""x"":946,""y"":318,""timestamp"":41930.70000000298},""timestamp"":41930.70000000298},{""type"":""chart_hover"",""data"":{""x"":948,""y"":316,""timestamp"":41937.40000000596},""timestamp"":41937.40000000596},{""type"":""chart_hover"",""data"":{""x"":950,""y"":311,""timestamp"":41954.40000000596},""timestamp"":41954.40000000596},{""type"":""chart_hover"",""data"":{""x"":952,""y"":307,""timestamp"":41970.40000000596},""timestamp"":41970.40000000596},{""type"":""chart_hover"",""data"":{""x"":954,""y"":303,""timestamp"":41987.40000000596},""timestamp"":41987.40000000596},{""type"":""chart_hover"",""data"":{""x"":957,""y"":299,""timestamp"":42004.70000000298},""timestamp"":42004.70000000298},{""type"":""chart_hover"",""data"":{""x"":958,""y"":298,""timestamp"":42020.90000000596},""timestamp"":42020.90000000596},{""type"":""chart_hover"",""data"":{""x"":961,""y"":296,""timestamp"":42037.70000000298},""timestamp"":42037.70000000298},{""type"":""chart_hover"",""data"":{""x"":964,""y"":292,""timestamp"":42053.79999999702},""timestamp"":42053.79999999702},{""type"":""chart_hover"",""data"":{""x"":966,""y"":289,""timestamp"":42070.60000000894},""timestamp"":42070.60000000894},{""type"":""chart_hover"",""data"":{""x"":967,""y"":285,""timestamp"":42087.70000000298},""timestamp"":42087.70000000298},{""type"":""chart_hover"",""data"":{""x"":967,""y"":284,""timestamp"":42104.60000000894},""timestamp"":42104.60000000894},{""type"":""chart_hover"",""data"":{""x"":968,""y"":282,""timestamp"":42120.79999999702},""timestamp"":42120.79999999702},{""type"":""chart_hover"",""data"":{""x"":968,""y"":280,""timestamp"":42137.79999999702},""timestamp"":42137.79999999702},{""type"":""chart_hover"",""data"":{""x"":969,""y"":278,""timestamp"":42154.79999999702},""timestamp"":42154.79999999702},{""type"":""chart_hover"",""data"":{""x"":969,""y"":277,""timestamp"":42171},""timestamp"":42171},{""type"":""chart_hover"",""data"":{""x"":969,""y"":276,""timestamp"":42188.79999999702},""timestamp"":42188.79999999702},{""type"":""chart_hover"",""data"":{""x"":969,""y"":275,""timestamp"":42205.10000000894},""timestamp"":42205.10000000894},{""type"":""chart_hover"",""data"":{""x"":969,""y"":274,""timestamp"":42221.10000000894},""timestamp"":42221.10000000894},{""type"":""chart_hover"",""data"":{""x"":970,""y"":274,""timestamp"":42238.29999999702},""timestamp"":42238.29999999702},{""type"":""chart_hover"",""data"":{""x"":970,""y"":273,""timestamp"":42254.60000000894},""timestamp"":42254.60000000894},{""type"":""chart_hover"",""data"":{""x"":970,""y"":272,""timestamp"":42278.90000000596},""timestamp"":42278.90000000596},{""type"":""chart_hover"",""data"":{""x"":971,""y"":271,""timestamp"":42294.90000000596},""timestamp"":42294.90000000596},{""type"":""chart_hover"",""data"":{""x"":971,""y"":270,""timestamp"":42310.60000000894},""timestamp"":42310.60000000894},{""type"":""chart_hover"",""data"":{""x"":972,""y"":270,""timestamp"":42321.70000000298},""timestamp"":42321.70000000298},{""type"":""chart_hover"",""data"":{""x"":973,""y"":270,""timestamp"":42338.70000000298},""timestamp"":42338.70000000298},{""type"":""chart_hover"",""data"":{""x"":974,""y"":270,""timestamp"":42390.70000000298},""timestamp"":42390.70000000298},{""type"":""chart_hover"",""data"":{""x"":974,""y"":269,""timestamp"":42422.70000000298},""timestamp"":42422.70000000298},{""type"":""chart_hover"",""data"":{""x"":975,""y"":269,""timestamp"":42438.90000000596},""timestamp"":42438.90000000596},{""type"":""chart_hover"",""data"":{""x"":976,""y"":269,""timestamp"":42534.90000000596},""timestamp"":42534.90000000596},{""type"":""chart_hover"",""data"":{""x"":977,""y"":269,""timestamp"":42572},""timestamp"":42572},{""type"":""chart_click"",""data"":{""x"":977,""y"":269,""timestamp"":42878.10000000894},""timestamp"":42878.10000000894},{""type"":""chart_hover"",""data"":{""x"":978,""y"":269,""timestamp"":43055.20000000298},""timestamp"":43055.20000000298},{""type"":""chart_hover"",""data"":{""x"":978,""y"":270,""timestamp"":43062.79999999702},""timestamp"":43062.79999999702},{""type"":""chart_hover"",""data"":{""x"":979,""y"":270,""timestamp"":43119.20000000298},""timestamp"":43119.20000000298},{""type"":""chart_hover"",""data"":{""x"":980,""y"":270,""timestamp"":43223.5},""timestamp"":43223.5},{""type"":""chart_hover"",""data"":{""x"":981,""y"":270,""timestamp"":43319.40000000596},""timestamp"":43319.40000000596},{""type"":""chart_hover"",""data"":{""x"":981,""y"":271,""timestamp"":44919.40000000596},""timestamp"":44919.40000000596},{""type"":""chart_hover"",""data"":{""x"":982,""y"":271,""timestamp"":44929.60000000894},""timestamp"":44929.60000000894},{""type"":""chart_hover"",""data"":{""x"":982,""y"":272,""timestamp"":45031.20000000298},""timestamp"":45031.20000000298},{""type"":""chart_hover"",""data"":{""x"":982,""y"":273,""timestamp"":45046.60000000894},""timestamp"":45046.60000000894},{""type"":""chart_hover"",""data"":{""x"":982,""y"":274,""timestamp"":45063.70000000298},""timestamp"":45063.70000000298},{""type"":""chart_hover"",""data"":{""x"":982,""y"":276,""timestamp"":45079.79999999702},""timestamp"":45079.79999999702},{""type"":""chart_hover"",""data"":{""x"":983,""y"":276,""timestamp"":45183.40000000596},""timestamp"":45183.40000000596},{""type"":""chart_hover"",""data"":{""x"":983,""y"":277,""timestamp"":45197.40000000596},""timestamp"":45197.40000000596},{""type"":""chart_hover"",""data"":{""x"":983,""y"":278,""timestamp"":45213.60000000894},""timestamp"":45213.60000000894},{""type"":""chart_hover"",""data"":{""x"":983,""y"":279,""timestamp"":45229.60000000894},""timestamp"":45229.60000000894},{""type"":""chart_hover"",""data"":{""x"":983,""y"":280,""timestamp"":45246.10000000894},""timestamp"":45246.10000000894},{""type"":""chart_hover"",""data"":{""x"":983,""y"":279,""timestamp"":45543.10000000894},""timestamp"":45543.10000000894},{""type"":""chart_hover"",""data"":{""x"":983,""y"":278,""timestamp"":45558.70000000298},""timestamp"":45558.70000000298},{""type"":""chart_hover"",""data"":{""x"":983,""y"":276,""timestamp"":45574.40000000596},""timestamp"":45574.40000000596},{""type"":""chart_hover"",""data"":{""x"":983,""y"":275,""timestamp"":45614.10000000894},""timestamp"":45614.20000000298},{""type"":""chart_hover"",""data"":{""x"":983,""y"":274,""timestamp"":45671.10000000894},""timestamp"":45671.10000000894},{""type"":""chart_hover"",""data"":{""x"":982,""y"":274,""timestamp"":45686.70000000298},""timestamp"":45686.70000000298},{""type"":""chart_hover"",""data"":{""x"":982,""y"":273,""timestamp"":45702.60000000894},""timestamp"":45702.60000000894},{""type"":""chart_hover"",""data"":{""x"":981,""y"":272,""timestamp"":45718.70000000298},""timestamp"":45718.70000000298},{""type"":""chart_hover"",""data"":{""x"":980,""y"":272,""timestamp"":45734.60000000894},""timestamp"":45734.60000000894},{""type"":""chart_hover"",""data"":{""x"":979,""y"":271,""timestamp"":45748.60000000894},""timestamp"":45748.60000000894},{""type"":""chart_hover"",""data"":{""x"":976,""y"":271,""timestamp"":45764.70000000298},""timestamp"":45764.70000000298},{""type"":""chart_hover"",""data"":{""x"":970,""y"":269,""timestamp"":45781.60000000894},""timestamp"":45781.60000000894},{""type"":""chart_hover"",""data"":{""x"":960,""y"":269,""timestamp"":45798.60000000894},""timestamp"":45798.60000000894},{""type"":""chart_hover"",""data"":{""x"":954,""y"":269,""timestamp"":45814.60000000894},""timestamp"":45814.60000000894},{""type"":""chart_hover"",""data"":{""x"":947,""y"":269,""timestamp"":45831.79999999702},""timestamp"":45831.79999999702},{""type"":""chart_hover"",""data"":{""x"":936,""y"":269,""timestamp"":45848.70000000298},""timestamp"":45848.70000000298},{""type"":""chart_hover"",""data"":{""x"":921,""y"":268,""timestamp"":45865.79999999702},""timestamp"":45865.79999999702},{""type"":""chart_hover"",""data"":{""x"":903,""y"":267,""timestamp"":45881.70000000298},""timestamp"":45881.70000000298},{""type"":""chart_hover"",""data"":{""x"":883,""y"":266,""timestamp"":45899.10000000894},""timestamp"":45899.10000000894},{""type"":""chart_hover"",""data"":{""x"":866,""y"":266,""timestamp"":45916.70000000298},""timestamp"":45916.70000000298},{""type"":""chart_hover"",""data"":{""x"":852,""y"":266,""timestamp"":45932.70000000298},""timestamp"":45932.70000000298},{""type"":""chart_hover"",""data"":{""x"":836,""y"":266,""timestamp"":45949},""timestamp"":45949},{""type"":""chart_hover"",""data"":{""x"":822,""y"":266,""timestamp"":45965},""timestamp"":45965},{""type"":""chart_hover"",""data"":{""x"":803,""y"":265,""timestamp"":45982.70000000298},""timestamp"":45982.70000000298},{""type"":""chart_hover"",""data"":{""x"":792,""y"":264,""timestamp"":45998.5},""timestamp"":45998.5},{""type"":""chart_hover"",""data"":{""x"":784,""y"":264,""timestamp"":46015.70000000298},""timestamp"":46015.70000000298},{""type"":""chart_hover"",""data"":{""x"":777,""y"":264,""timestamp"":46032.70000000298},""timestamp"":46032.70000000298},{""type"":""chart_hover"",""data"":{""x"":771,""y"":264,""timestamp"":46048.60000000894},""timestamp"":46048.60000000894},{""type"":""chart_hover"",""data"":{""x"":768,""y"":264,""timestamp"":46065.79999999702},""timestamp"":46065.79999999702},{""type"":""chart_hover"",""data"":{""x"":767,""y"":264,""timestamp"":46119.10000000894},""timestamp"":46119.10000000894},{""type"":""chart_hover"",""data"":{""x"":766,""y"":265,""timestamp"":46142.70000000298},""timestamp"":46142.70000000298},{""type"":""chart_hover"",""data"":{""x"":765,""y"":265,""timestamp"":46150.60000000894},""timestamp"":46150.60000000894},{""type"":""chart_hover"",""data"":{""x"":765,""y"":266,""timestamp"":46166},""timestamp"":46166},{""type"":""chart_hover"",""data"":{""x"":763,""y"":267,""timestamp"":46182.5},""timestamp"":46182.5},{""type"":""chart_hover"",""data"":{""x"":761,""y"":267,""timestamp"":46199.70000000298},""timestamp"":46199.70000000298},{""type"":""chart_hover"",""data"":{""x"":759,""y"":269,""timestamp"":46216.79999999702},""timestamp"":46216.79999999702},{""type"":""chart_hover"",""data"":{""x"":757,""y"":269,""timestamp"":46232.70000000298},""timestamp"":46232.70000000298},{""type"":""chart_hover"",""data"":{""x"":756,""y"":270,""timestamp"":46249.90000000596},""timestamp"":46249.90000000596},{""type"":""chart_hover"",""data"":{""x"":755,""y"":271,""timestamp"":46266.70000000298},""timestamp"":46266.70000000298},{""type"":""chart_hover"",""data"":{""x"":754,""y"":271,""timestamp"":46316.5},""timestamp"":46316.5},{""type"":""chart_hover"",""data"":{""x"":753,""y"":271,""timestamp"":46333.40000000596},""timestamp"":46333.5},{""type"":""chart_hover"",""data"":{""x"":753,""y"":272,""timestamp"":46349.40000000596},""timestamp"":46349.40000000596},{""type"":""chart_hover"",""data"":{""x"":754,""y"":272,""timestamp"":46855.10000000894},""timestamp"":46855.10000000894},{""type"":""chart_hover"",""data"":{""x"":755,""y"":272,""timestamp"":46870.60000000894},""timestamp"":46870.60000000894},{""type"":""chart_hover"",""data"":{""x"":756,""y"":272,""timestamp"":46885.40000000596},""timestamp"":46885.40000000596},{""type"":""chart_hover"",""data"":{""x"":759,""y"":273,""timestamp"":46901.29999999702},""timestamp"":46901.29999999702},{""type"":""chart_hover"",""data"":{""x"":762,""y"":274,""timestamp"":46920.40000000596},""timestamp"":46920.40000000596},{""type"":""chart_hover"",""data"":{""x"":764,""y"":274,""timestamp"":46935.79999999702},""timestamp"":46935.79999999702},{""type"":""chart_hover"",""data"":{""x"":768,""y"":275,""timestamp"":46952.79999999702},""timestamp"":46952.79999999702},{""type"":""chart_hover"",""data"":{""x"":773,""y"":276,""timestamp"":46968.60000000894},""timestamp"":46968.60000000894},{""type"":""chart_hover"",""data"":{""x"":778,""y"":277,""timestamp"":46985.60000000894},""timestamp"":46985.60000000894},{""type"":""chart_hover"",""data"":{""x"":783,""y"":279,""timestamp"":47001.79999999702},""timestamp"":47001.79999999702},{""type"":""chart_hover"",""data"":{""x"":790,""y"":281,""timestamp"":47018.90000000596},""timestamp"":47018.90000000596},{""type"":""chart_hover"",""data"":{""x"":792,""y"":282,""timestamp"":47035.70000000298},""timestamp"":47035.70000000298},{""type"":""chart_hover"",""data"":{""x"":795,""y"":282,""timestamp"":47051.79999999702},""timestamp"":47051.79999999702},{""type"":""chart_hover"",""data"":{""x"":797,""y"":283,""timestamp"":47068.60000000894},""timestamp"":47068.60000000894},{""type"":""chart_hover"",""data"":{""x"":799,""y"":284,""timestamp"":47085.70000000298},""timestamp"":47085.70000000298},{""type"":""chart_hover"",""data"":{""x"":802,""y"":286,""timestamp"":47101.79999999702},""timestamp"":47101.79999999702},{""type"":""chart_hover"",""data"":{""x"":808,""y"":289,""timestamp"":47118.5},""timestamp"":47118.5},{""type"":""chart_hover"",""data"":{""x"":811,""y"":291,""timestamp"":47135.60000000894},""timestamp"":47135.60000000894},{""type"":""chart_hover"",""data"":{""x"":815,""y"":294,""timestamp"":47152.79999999702},""timestamp"":47152.79999999702},{""type"":""chart_hover"",""data"":{""x"":818,""y"":296,""timestamp"":47168.79999999702},""timestamp"":47168.79999999702},{""type"":""chart_hover"",""data"":{""x"":822,""y"":299,""timestamp"":47186.79999999702},""timestamp"":47186.79999999702},{""type"":""chart_hover"",""data"":{""x"":826,""y"":302,""timestamp"":47203},""timestamp"":47203},{""type"":""chart_hover"",""data"":{""x"":828,""y"":304,""timestamp"":47219},""timestamp"":47219},{""type"":""chart_hover"",""data"":{""x"":830,""y"":306,""timestamp"":47235.79999999702},""timestamp"":47235.79999999702},{""type"":""chart_hover"",""data"":{""x"":832,""y"":308,""timestamp"":47252.79999999702},""timestamp"":47252.79999999702},{""type"":""chart_hover"",""data"":{""x"":834,""y"":310,""timestamp"":47269.70000000298},""timestamp"":47269.70000000298},{""type"":""chart_hover"",""data"":{""x"":835,""y"":311,""timestamp"":47286},""timestamp"":47286},{""type"":""chart_hover"",""data"":{""x"":836,""y"":314,""timestamp"":47303},""timestamp"":47303},{""type"":""chart_hover"",""data"":{""x"":837,""y"":315,""timestamp"":47319},""timestamp"":47319},{""type"":""chart_hover"",""data"":{""x"":839,""y"":316,""timestamp"":47335.79999999702},""timestamp"":47335.79999999702},{""type"":""chart_hover"",""data"":{""x"":839,""y"":317,""timestamp"":47358.70000000298},""timestamp"":47358.70000000298},{""type"":""chart_hover"",""data"":{""x"":840,""y"":317,""timestamp"":47374.60000000894},""timestamp"":47374.60000000894},{""type"":""chart_hover"",""data"":{""x"":841,""y"":317,""timestamp"":47398.40000000596},""timestamp"":47398.40000000596},{""type"":""chart_hover"",""data"":{""x"":843,""y"":317,""timestamp"":47414.60000000894},""timestamp"":47414.60000000894},{""type"":""chart_hover"",""data"":{""x"":845,""y"":317,""timestamp"":47422.60000000894},""timestamp"":47422.60000000894},{""type"":""chart_hover"",""data"":{""x"":847,""y"":317,""timestamp"":47436.60000000894},""timestamp"":47436.60000000894},{""type"":""chart_hover"",""data"":{""x"":854,""y"":317,""timestamp"":47453.70000000298},""timestamp"":47453.70000000298},{""type"":""chart_hover"",""data"":{""x"":861,""y"":317,""timestamp"":47469.79999999702},""timestamp"":47469.79999999702},{""type"":""chart_hover"",""data"":{""x"":872,""y"":313,""timestamp"":47486.5},""timestamp"":47486.5},{""type"":""chart_hover"",""data"":{""x"":877,""y"":311,""timestamp"":47503.60000000894},""timestamp"":47503.60000000894},{""type"":""chart_hover"",""data"":{""x"":884,""y"":309,""timestamp"":47519.60000000894},""timestamp"":47519.60000000894},{""type"":""chart_hover"",""data"":{""x"":889,""y"":307,""timestamp"":47536.70000000298},""timestamp"":47536.70000000298},{""type"":""chart_hover"",""data"":{""x"":893,""y"":305,""timestamp"":47553.90000000596},""timestamp"":47553.90000000596},{""type"":""chart_hover"",""data"":{""x"":895,""y"":304,""timestamp"":47569.90000000596},""timestamp"":47569.90000000596},{""type"":""chart_hover"",""data"":{""x"":899,""y"":302,""timestamp"":47586.70000000298},""timestamp"":47586.70000000298},{""type"":""chart_hover"",""data"":{""x"":902,""y"":300,""timestamp"":47603.79999999702},""timestamp"":47603.79999999702},{""type"":""chart_hover"",""data"":{""x"":905,""y"":299,""timestamp"":47620.60000000894},""timestamp"":47620.60000000894},{""type"":""chart_hover"",""data"":{""x"":908,""y"":298,""timestamp"":47636.90000000596},""timestamp"":47636.90000000596},{""type"":""chart_hover"",""data"":{""x"":911,""y"":298,""timestamp"":47653.79999999702},""timestamp"":47653.79999999702},{""type"":""chart_hover"",""data"":{""x"":915,""y"":296,""timestamp"":47670.79999999702},""timestamp"":47670.79999999702},{""type"":""chart_hover"",""data"":{""x"":917,""y"":295,""timestamp"":47687.29999999702},""timestamp"":47687.29999999702},{""type"":""chart_hover"",""data"":{""x"":917,""y"":294,""timestamp"":47703.70000000298},""timestamp"":47703.70000000298},{""type"":""chart_hover"",""data"":{""x"":918,""y"":294,""timestamp"":47720.79999999702},""timestamp"":47720.79999999702},{""type"":""chart_hover"",""data"":{""x"":920,""y"":294,""timestamp"":47737.79999999702},""timestamp"":47737.79999999702},{""type"":""chart_hover"",""data"":{""x"":921,""y"":294,""timestamp"":47758.40000000596},""timestamp"":47758.40000000596},{""type"":""chart_hover"",""data"":{""x"":921,""y"":293,""timestamp"":47771},""timestamp"":47771},{""type"":""chart_hover"",""data"":{""x"":922,""y"":293,""timestamp"":47787.10000000894},""timestamp"":47787.10000000894},{""type"":""chart_hover"",""data"":{""x"":923,""y"":293,""timestamp"":47804.10000000894},""timestamp"":47804.10000000894},{""type"":""chart_hover"",""data"":{""x"":925,""y"":292,""timestamp"":47854.60000000894},""timestamp"":47854.60000000894},{""type"":""chart_hover"",""data"":{""x"":926,""y"":291,""timestamp"":47878.90000000596},""timestamp"":47878.90000000596},{""type"":""chart_hover"",""data"":{""x"":927,""y"":290,""timestamp"":47902.79999999702},""timestamp"":47902.79999999702},{""type"":""chart_hover"",""data"":{""x"":928,""y"":290,""timestamp"":47918.79999999702},""timestamp"":47918.90000000596},{""type"":""chart_hover"",""data"":{""x"":929,""y"":289,""timestamp"":47934.5},""timestamp"":47934.5},{""type"":""chart_hover"",""data"":{""x"":930,""y"":288,""timestamp"":47950.79999999702},""timestamp"":47950.79999999702},{""type"":""chart_hover"",""data"":{""x"":931,""y"":288,""timestamp"":47988.10000000894},""timestamp"":47988.10000000894},{""type"":""chart_hover"",""data"":{""x"":932,""y"":288,""timestamp"":48004.20000000298},""timestamp"":48004.20000000298},{""type"":""chart_hover"",""data"":{""x"":932,""y"":287,""timestamp"":48021.20000000298},""timestamp"":48021.20000000298},{""type"":""chart_hover"",""data"":{""x"":933,""y"":287,""timestamp"":48038.40000000596},""timestamp"":48038.40000000596},{""type"":""chart_hover"",""data"":{""x"":934,""y"":287,""timestamp"":48062.5},""timestamp"":48062.5},{""type"":""chart_hover"",""data"":{""x"":935,""y"":287,""timestamp"":48111.10000000894},""timestamp"":48111.10000000894},{""type"":""chart_hover"",""data"":{""x"":935,""y"":286,""timestamp"":48121.10000000894},""timestamp"":48121.10000000894},{""type"":""chart_hover"",""data"":{""x"":936,""y"":286,""timestamp"":48138.20000000298},""timestamp"":48138.20000000298},{""type"":""chart_hover"",""data"":{""x"":937,""y"":286,""timestamp"":48159},""timestamp"":48159},{""type"":""chart_hover"",""data"":{""x"":937,""y"":285,""timestamp"":48174.40000000596},""timestamp"":48174.40000000596},{""type"":""chart_hover"",""data"":{""x"":938,""y"":285,""timestamp"":48222.90000000596},""timestamp"":48222.90000000596},{""type"":""chart_hover"",""data"":{""x"":939,""y"":285,""timestamp"":48238.90000000596},""timestamp"":48238.90000000596},{""type"":""chart_hover"",""data"":{""x"":939,""y"":284,""timestamp"":48262.60000000894},""timestamp"":48262.70000000298},{""type"":""chart_hover"",""data"":{""x"":940,""y"":284,""timestamp"":48278.70000000298},""timestamp"":48278.70000000298},{""type"":""chart_hover"",""data"":{""x"":941,""y"":284,""timestamp"":48327},""timestamp"":48327.10000000894},{""type"":""chart_hover"",""data"":{""x"":942,""y"":283,""timestamp"":48350.70000000298},""timestamp"":48350.70000000298},{""type"":""chart_hover"",""data"":{""x"":943,""y"":283,""timestamp"":48389.5},""timestamp"":48389.5},{""type"":""chart_hover"",""data"":{""x"":943,""y"":282,""timestamp"":48406.70000000298},""timestamp"":48406.70000000298},{""type"":""chart_hover"",""data"":{""x"":944,""y"":282,""timestamp"":48423.70000000298},""timestamp"":48423.70000000298},{""type"":""chart_hover"",""data"":{""x"":945,""y"":282,""timestamp"":48439.90000000596},""timestamp"":48439.90000000596},{""type"":""chart_hover"",""data"":{""x"":946,""y"":282,""timestamp"":48503},""timestamp"":48503},{""type"":""chart_hover"",""data"":{""x"":946,""y"":281,""timestamp"":48518.60000000894},""timestamp"":48518.60000000894},{""type"":""chart_hover"",""data"":{""x"":947,""y"":280,""timestamp"":48534.70000000298},""timestamp"":48534.70000000298},{""type"":""chart_hover"",""data"":{""x"":948,""y"":280,""timestamp"":48542.70000000298},""timestamp"":48542.70000000298},{""type"":""chart_hover"",""data"":{""x"":949,""y"":280,""timestamp"":48591},""timestamp"":48591},{""type"":""chart_hover"",""data"":{""x"":950,""y"":280,""timestamp"":48622.40000000596},""timestamp"":48622.40000000596},{""type"":""chart_hover"",""data"":{""x"":950,""y"":279,""timestamp"":48630.79999999702},""timestamp"":48630.79999999702},{""type"":""chart_hover"",""data"":{""x"":951,""y"":279,""timestamp"":48673.40000000596},""timestamp"":48673.40000000596},{""type"":""chart_hover"",""data"":{""x"":952,""y"":278,""timestamp"":48689.79999999702},""timestamp"":48689.79999999702},{""type"":""chart_hover"",""data"":{""x"":953,""y"":278,""timestamp"":48718.40000000596},""timestamp"":48718.40000000596},{""type"":""chart_hover"",""data"":{""x"":953,""y"":277,""timestamp"":48756.79999999702},""timestamp"":48756.79999999702},{""type"":""chart_hover"",""data"":{""x"":954,""y"":277,""timestamp"":48773.79999999702},""timestamp"":48773.79999999702},{""type"":""chart_hover"",""data"":{""x"":955,""y"":277,""timestamp"":48798.5},""timestamp"":48798.5},{""type"":""chart_hover"",""data"":{""x"":956,""y"":277,""timestamp"":48822.60000000894},""timestamp"":48822.60000000894},{""type"":""chart_hover"",""data"":{""x"":956,""y"":276,""timestamp"":48838.60000000894},""timestamp"":48838.60000000894},{""type"":""chart_hover"",""data"":{""x"":957,""y"":276,""timestamp"":48846.40000000596},""timestamp"":48846.40000000596},{""type"":""chart_hover"",""data"":{""x"":957,""y"":275,""timestamp"":48890.40000000596},""timestamp"":48890.40000000596},{""type"":""chart_hover"",""data"":{""x"":958,""y"":275,""timestamp"":48907.5},""timestamp"":48907.5},{""type"":""chart_hover"",""data"":{""x"":959,""y"":275,""timestamp"":48959.20000000298},""timestamp"":48959.29999999702},{""type"":""chart_hover"",""data"":{""x"":960,""y"":274,""timestamp"":49022.90000000596},""timestamp"":49023},{""type"":""chart_hover"",""data"":{""x"":961,""y"":274,""timestamp"":49079},""timestamp"":49079},{""type"":""chart_hover"",""data"":{""x"":962,""y"":274,""timestamp"":49094.79999999702},""timestamp"":49094.79999999702},{""type"":""chart_hover"",""data"":{""x"":963,""y"":274,""timestamp"":49118},""timestamp"":49118},{""type"":""chart_hover"",""data"":{""x"":964,""y"":274,""timestamp"":49158.60000000894},""timestamp"":49158.60000000894},{""type"":""chart_hover"",""data"":{""x"":965,""y"":274,""timestamp"":49174.5},""timestamp"":49174.5},{""type"":""chart_hover"",""data"":{""x"":966,""y"":274,""timestamp"":49271.10000000894},""timestamp"":49271.10000000894},{""type"":""chart_hover"",""data"":{""x"":967,""y"":274,""timestamp"":49286.60000000894},""timestamp"":49286.60000000894},{""type"":""chart_hover"",""data"":{""x"":968,""y"":274,""timestamp"":49294.5},""timestamp"":49294.5},{""type"":""chart_hover"",""data"":{""x"":969,""y"":274,""timestamp"":49308.70000000298},""timestamp"":49308.70000000298},{""type"":""chart_hover"",""data"":{""x"":970,""y"":274,""timestamp"":49334.79999999702},""timestamp"":49334.79999999702},{""type"":""chart_hover"",""data"":{""x"":971,""y"":274,""timestamp"":49383.29999999702},""timestamp"":49383.29999999702},{""type"":""chart_hover"",""data"":{""x"":972,""y"":274,""timestamp"":49391.70000000298},""timestamp"":49391.70000000298},{""type"":""chart_hover"",""data"":{""x"":973,""y"":274,""timestamp"":49408.79999999702},""timestamp"":49408.79999999702},{""type"":""chart_hover"",""data"":{""x"":974,""y"":274,""timestamp"":49425.60000000894},""timestamp"":49425.60000000894},{""type"":""chart_hover"",""data"":{""x"":975,""y"":274,""timestamp"":49442.70000000298},""timestamp"":49442.70000000298},{""type"":""chart_hover"",""data"":{""x"":976,""y"":274,""timestamp"":49492.10000000894},""timestamp"":49492.10000000894},{""type"":""chart_hover"",""data"":{""x"":977,""y"":274,""timestamp"":49518.40000000596},""timestamp"":49518.40000000596},{""type"":""chart_hover"",""data"":{""x"":978,""y"":274,""timestamp"":49558.70000000298},""timestamp"":49558.70000000298},{""type"":""chart_hover"",""data"":{""x"":979,""y"":274,""timestamp"":49582.5},""timestamp"":49582.5},{""type"":""chart_hover"",""data"":{""x"":980,""y"":274,""timestamp"":49598.60000000894},""timestamp"":49598.60000000894},{""type"":""chart_hover"",""data"":{""x"":981,""y"":274,""timestamp"":49662.90000000596},""timestamp"":49662.90000000596},{""type"":""chart_hover"",""data"":{""x"":981,""y"":276,""timestamp"":49927.40000000596},""timestamp"":49927.40000000596},{""type"":""chart_hover"",""data"":{""x"":979,""y"":276,""timestamp"":49943.90000000596},""timestamp"":49943.90000000596},{""type"":""chart_hover"",""data"":{""x"":978,""y"":276,""timestamp"":49960.5},""timestamp"":49960.5},{""type"":""chart_hover"",""data"":{""x"":977,""y"":277,""timestamp"":49977.40000000596},""timestamp"":49977.40000000596},{""type"":""chart_hover"",""data"":{""x"":976,""y"":278,""timestamp"":49993.60000000894},""timestamp"":49993.60000000894},{""type"":""chart_hover"",""data"":{""x"":975,""y"":280,""timestamp"":50010.70000000298},""timestamp"":50010.70000000298},{""type"":""chart_hover"",""data"":{""x"":974,""y"":280,""timestamp"":50027.5},""timestamp"":50027.5},{""type"":""chart_hover"",""data"":{""x"":974,""y"":281,""timestamp"":50043.5},""timestamp"":50043.5},{""type"":""chart_hover"",""data"":{""x"":974,""y"":282,""timestamp"":50062.40000000596},""timestamp"":50062.40000000596},{""type"":""chart_hover"",""data"":{""x"":974,""y"":281,""timestamp"":50262.70000000298},""timestamp"":50262.70000000298},{""type"":""chart_hover"",""data"":{""x"":974,""y"":280,""timestamp"":50294.70000000298},""timestamp"":50294.70000000298},{""type"":""chart_hover"",""data"":{""x"":974,""y"":279,""timestamp"":50318.40000000596},""timestamp"":50318.40000000596},{""type"":""chart_hover"",""data"":{""x"":975,""y"":279,""timestamp"":50334.40000000596},""timestamp"":50334.40000000596},{""type"":""chart_hover"",""data"":{""x"":975,""y"":278,""timestamp"":50345.60000000894},""timestamp"":50345.60000000894},{""type"":""chart_hover"",""data"":{""x"":976,""y"":278,""timestamp"":50361.70000000298},""timestamp"":50361.70000000298},{""type"":""chart_hover"",""data"":{""x"":976,""y"":277,""timestamp"":50378.5},""timestamp"":50378.5},{""type"":""chart_hover"",""data"":{""x"":977,""y"":276,""timestamp"":50394.60000000894},""timestamp"":50394.60000000894},{""type"":""chart_hover"",""data"":{""x"":977,""y"":275,""timestamp"":50411.70000000298},""timestamp"":50411.70000000298},{""type"":""chart_hover"",""data"":{""x"":978,""y"":275,""timestamp"":50429},""timestamp"":50429},{""type"":""chart_hover"",""data"":{""x"":978,""y"":274,""timestamp"":50454.60000000894},""timestamp"":50454.60000000894},{""type"":""chart_hover"",""data"":{""x"":979,""y"":274,""timestamp"":50470.60000000894},""timestamp"":50470.60000000894},{""type"":""chart_hover"",""data"":{""x"":979,""y"":273,""timestamp"":50512.10000000894},""timestamp"":50512.10000000894},{""type"":""chart_hover"",""data"":{""x"":980,""y"":273,""timestamp"":50534.60000000894},""timestamp"":50534.60000000894},{""type"":""chart_hover"",""data"":{""x"":981,""y"":273,""timestamp"":51751.5},""timestamp"":51751.5},{""type"":""chart_hover"",""data"":{""x"":981,""y"":274,""timestamp"":51774.70000000298},""timestamp"":51774.70000000298},{""type"":""chart_hover"",""data"":{""x"":982,""y"":276,""timestamp"":51816.29999999702},""timestamp"":51816.29999999702},{""type"":""chart_hover"",""data"":{""x"":983,""y"":277,""timestamp"":51832.79999999702},""timestamp"":51832.79999999702},{""type"":""chart_hover"",""data"":{""x"":984,""y"":279,""timestamp"":51848.90000000596},""timestamp"":51848.90000000596},{""type"":""chart_hover"",""data"":{""x"":984,""y"":280,""timestamp"":51865.90000000596},""timestamp"":51865.90000000596},{""type"":""chart_hover"",""data"":{""x"":985,""y"":281,""timestamp"":51883.79999999702},""timestamp"":51883.79999999702},{""type"":""chart_hover"",""data"":{""x"":985,""y"":282,""timestamp"":51902.40000000596},""timestamp"":51902.40000000596},{""type"":""chart_hover"",""data"":{""x"":985,""y"":283,""timestamp"":51916.60000000894},""timestamp"":51916.60000000894},{""type"":""chart_hover"",""data"":{""x"":985,""y"":284,""timestamp"":51932.79999999702},""timestamp"":51932.79999999702},{""type"":""chart_hover"",""data"":{""x"":985,""y"":285,""timestamp"":51949.90000000596},""timestamp"":51949.90000000596},{""type"":""chart_hover"",""data"":{""x"":985,""y"":286,""timestamp"":51982.79999999702},""timestamp"":51982.79999999702},{""type"":""chart_hover"",""data"":{""x"":985,""y"":287,""timestamp"":52006.5},""timestamp"":52006.5},{""type"":""chart_hover"",""data"":{""x"":985,""y"":288,""timestamp"":52055.40000000596},""timestamp"":52055.40000000596},{""type"":""chart_hover"",""data"":{""x"":985,""y"":289,""timestamp"":52143},""timestamp"":52143},{""type"":""chart_hover"",""data"":{""x"":984,""y"":289,""timestamp"":52271},""timestamp"":52271},{""type"":""chart_hover"",""data"":{""x"":983,""y"":289,""timestamp"":52286.60000000894},""timestamp"":52286.60000000894},{""type"":""chart_hover"",""data"":{""x"":982,""y"":289,""timestamp"":52310.60000000894},""timestamp"":52310.60000000894},{""type"":""chart_hover"",""data"":{""x"":981,""y"":289,""timestamp"":52351.10000000894},""timestamp"":52351.10000000894},{""type"":""chart_hover"",""data"":{""x"":980,""y"":289,""timestamp"":52374.5},""timestamp"":52374.5},{""type"":""chart_hover"",""data"":{""x"":979,""y"":289,""timestamp"":52383.5},""timestamp"":52383.5},{""type"":""chart_hover"",""data"":{""x"":979,""y"":288,""timestamp"":52400.60000000894},""timestamp"":52400.60000000894},{""type"":""chart_hover"",""data"":{""x"":978,""y"":288,""timestamp"":52417.70000000298},""timestamp"":52417.70000000298},{""type"":""chart_hover"",""data"":{""x"":978,""y"":287,""timestamp"":52479},""timestamp"":52479},{""type"":""chart_hover"",""data"":{""x"":977,""y"":287,""timestamp"":52486.60000000894},""timestamp"":52486.60000000894},{""type"":""chart_hover"",""data"":{""x"":977,""y"":286,""timestamp"":52999.20000000298},""timestamp"":52999.20000000298},{""type"":""chart_hover"",""data"":{""x"":977,""y"":285,""timestamp"":53143.29999999702},""timestamp"":53143.29999999702},{""type"":""chart_hover"",""data"":{""x"":978,""y"":285,""timestamp"":53158.5},""timestamp"":53158.5},{""type"":""chart_hover"",""data"":{""x"":979,""y"":285,""timestamp"":53391.20000000298},""timestamp"":53391.20000000298},{""type"":""chart_hover"",""data"":{""x"":980,""y"":285,""timestamp"":53414.5},""timestamp"":53414.5},{""type"":""chart_hover"",""data"":{""x"":980,""y"":284,""timestamp"":54287.40000000596},""timestamp"":54287.40000000596},{""type"":""chart_hover"",""data"":{""x"":981,""y"":284,""timestamp"":54302.5},""timestamp"":54302.5},{""type"":""chart_hover"",""data"":{""x"":981,""y"":283,""timestamp"":54340.29999999702},""timestamp"":54340.29999999702},{""type"":""chart_hover"",""data"":{""x"":981,""y"":282,""timestamp"":54366.5},""timestamp"":54366.5},{""type"":""chart_hover"",""data"":{""x"":981,""y"":281,""timestamp"":54551.29999999702},""timestamp"":54551.29999999702},{""type"":""chart_hover"",""data"":{""x"":981,""y"":280,""timestamp"":54758.90000000596},""timestamp"":54758.90000000596},{""type"":""chart_hover"",""data"":{""x"":982,""y"":280,""timestamp"":54831},""timestamp"":54831},{""type"":""chart_hover"",""data"":{""x"":982,""y"":279,""timestamp"":55031.10000000894},""timestamp"":55031.10000000894},{""type"":""chart_hover"",""data"":{""x"":982,""y"":278,""timestamp"":55175.10000000894},""timestamp"":55175.10000000894},{""type"":""chart_hover"",""data"":{""x"":982,""y"":277,""timestamp"":55423.10000000894},""timestamp"":55423.10000000894},{""type"":""chart_hover"",""data"":{""x"":982,""y"":276,""timestamp"":55558.90000000596},""timestamp"":55558.90000000596},{""type"":""chart_hover"",""data"":{""x"":982,""y"":275,""timestamp"":55638.90000000596},""timestamp"":55638.90000000596},{""type"":""chart_hover"",""data"":{""x"":981,""y"":275,""timestamp"":55654.60000000894},""timestamp"":55654.60000000894},{""type"":""chart_hover"",""data"":{""x"":981,""y"":274,""timestamp"":55711.10000000894},""timestamp"":55711.10000000894},{""type"":""chart_hover"",""data"":{""x"":981,""y"":273,""timestamp"":55863.10000000894},""timestamp"":55863.10000000894},{""type"":""chart_hover"",""data"":{""x"":980,""y"":273,""timestamp"":55951.20000000298},""timestamp"":55951.20000000298},{""type"":""chart_hover"",""data"":{""x"":979,""y"":273,""timestamp"":55961.40000000596},""timestamp"":55961.40000000596},{""type"":""chart_hover"",""data"":{""x"":978,""y"":273,""timestamp"":56087},""timestamp"":56087},{""type"":""chart_hover"",""data"":{""x"":977,""y"":273,""timestamp"":56102.70000000298},""timestamp"":56102.70000000298},{""type"":""chart_hover"",""data"":{""x"":976,""y"":273,""timestamp"":56111.60000000894},""timestamp"":56111.60000000894},{""type"":""chart_hover"",""data"":{""x"":975,""y"":273,""timestamp"":56128.20000000298},""timestamp"":56128.20000000298},{""type"":""chart_hover"",""data"":{""x"":974,""y"":273,""timestamp"":56145.20000000298},""timestamp"":56145.29999999702},{""type"":""chart_hover"",""data"":{""x"":971,""y"":273,""timestamp"":56162.20000000298},""timestamp"":56162.20000000298},{""type"":""chart_hover"",""data"":{""x"":969,""y"":274,""timestamp"":56178.10000000894},""timestamp"":56178.10000000894},{""type"":""chart_hover"",""data"":{""x"":968,""y"":274,""timestamp"":56195.20000000298},""timestamp"":56195.20000000298},{""type"":""chart_hover"",""data"":{""x"":964,""y"":276,""timestamp"":56211.20000000298},""timestamp"":56211.20000000298},{""type"":""chart_hover"",""data"":{""x"":958,""y"":277,""timestamp"":56228.5},""timestamp"":56228.5},{""type"":""chart_hover"",""data"":{""x"":953,""y"":279,""timestamp"":56245.29999999702},""timestamp"":56245.29999999702},{""type"":""chart_hover"",""data"":{""x"":944,""y"":280,""timestamp"":56261.40000000596},""timestamp"":56261.40000000596},{""type"":""chart_hover"",""data"":{""x"":929,""y"":281,""timestamp"":56278.60000000894},""timestamp"":56278.60000000894},{""type"":""chart_hover"",""data"":{""x"":919,""y"":284,""timestamp"":56295.60000000894},""timestamp"":56295.60000000894},{""type"":""chart_hover"",""data"":{""x"":910,""y"":288,""timestamp"":56311.5},""timestamp"":56311.5},{""type"":""chart_hover"",""data"":{""x"":905,""y"":292,""timestamp"":56328.60000000894},""timestamp"":56328.60000000894},{""type"":""chart_hover"",""data"":{""x"":901,""y"":296,""timestamp"":56345.10000000894},""timestamp"":56345.10000000894},{""type"":""chart_hover"",""data"":{""x"":897,""y"":301,""timestamp"":56362.79999999702},""timestamp"":56362.79999999702},{""type"":""chart_hover"",""data"":{""x"":895,""y"":307,""timestamp"":56378.5},""timestamp"":56378.5},{""type"":""chart_hover"",""data"":{""x"":890,""y"":312,""timestamp"":56395.5},""timestamp"":56395.5},{""type"":""chart_hover"",""data"":{""x"":878,""y"":324,""timestamp"":56412.70000000298},""timestamp"":56412.70000000298},{""type"":""chart_hover"",""data"":{""x"":868,""y"":336,""timestamp"":56428.79999999702},""timestamp"":56428.79999999702},{""type"":""chart_hover"",""data"":{""x"":857,""y"":349,""timestamp"":56445.5},""timestamp"":56445.5},{""type"":""chart_hover"",""data"":{""x"":844,""y"":370,""timestamp"":56463.10000000894},""timestamp"":56463.10000000894},{""type"":""chart_hover"",""data"":{""x"":837,""y"":383,""timestamp"":56478.90000000596},""timestamp"":56478.90000000596},{""type"":""chart_hover"",""data"":{""x"":829,""y"":395,""timestamp"":56495.90000000596},""timestamp"":56495.90000000596},{""type"":""chart_hover"",""data"":{""x"":823,""y"":410,""timestamp"":56513},""timestamp"":56513},{""type"":""chart_hover"",""data"":{""x"":813,""y"":422,""timestamp"":56529.10000000894},""timestamp"":56529.10000000894},{""type"":""chart_hover"",""data"":{""x"":804,""y"":443,""timestamp"":56546.10000000894},""timestamp"":56546.10000000894},{""type"":""chart_hover"",""data"":{""x"":792,""y"":459,""timestamp"":56563.20000000298},""timestamp"":56563.20000000298},{""type"":""chart_hover"",""data"":{""x"":780,""y"":475,""timestamp"":56579.29999999702},""timestamp"":56579.29999999702},{""type"":""chart_hover"",""data"":{""x"":769,""y"":487,""timestamp"":56596.40000000596},""timestamp"":56596.40000000596},{""type"":""chart_hover"",""data"":{""x"":759,""y"":502,""timestamp"":56613.70000000298},""timestamp"":56613.70000000298},{""type"":""chart_hover"",""data"":{""x"":748,""y"":516,""timestamp"":56629.70000000298},""timestamp"":56629.70000000298},{""type"":""chart_hover"",""data"":{""x"":735,""y"":535,""timestamp"":56646.10000000894},""timestamp"":56646.20000000298},{""type"":""chart_hover"",""data"":{""x"":718,""y"":562,""timestamp"":56663.5},""timestamp"":56663.5},{""type"":""chart_hover"",""data"":{""x"":707,""y"":577,""timestamp"":56679.60000000894},""timestamp"":56679.60000000894},{""type"":""chart_hover"",""data"":{""x"":699,""y"":588,""timestamp"":56696.5},""timestamp"":56696.5},{""type"":""chart_hover"",""data"":{""x"":694,""y"":594,""timestamp"":56713.60000000894},""timestamp"":56713.60000000894},{""type"":""chart_leave"",""data"":{""timestamp"":56729.70000000298},""timestamp"":56729.70000000298},{""type"":""chart_enter"",""data"":{""timestamp"":103849},""timestamp"":103849},{""type"":""chart_hover"",""data"":{""x"":1186,""y"":540,""timestamp"":103849.10000000894},""timestamp"":103849.10000000894},{""type"":""chart_hover"",""data"":{""x"":1232,""y"":445,""timestamp"":103867.10000000894},""timestamp"":103867.10000000894},{""type"":""chart_hover"",""data"":{""x"":1317,""y"":289,""timestamp"":103896.79999999702},""timestamp"":103896.79999999702},{""type"":""chart_hover"",""data"":{""x"":1367,""y"":210,""timestamp"":103920.20000000298},""timestamp"":103920.20000000298},{""type"":""chart_hover"",""data"":{""x"":1383,""y"":182,""timestamp"":103937.70000000298},""timestamp"":103937.70000000298},{""type"":""chart_hover"",""data"":{""x"":1393,""y"":161,""timestamp"":103951.20000000298},""timestamp"":103951.20000000298},{""type"":""chart_hover"",""data"":{""x"":1397,""y"":153,""timestamp"":103965.90000000596},""timestamp"":103965.90000000596},{""type"":""chart_hover"",""data"":{""x"":1403,""y"":135,""timestamp"":103983},""timestamp"":103983},{""type"":""chart_hover"",""data"":{""x"":1403,""y"":127,""timestamp"":103999.40000000596},""timestamp"":103999.40000000596},{""type"":""chart_hover"",""data"":{""x"":1404,""y"":120,""timestamp"":104015.29999999702},""timestamp"":104015.29999999702},{""type"":""chart_hover"",""data"":{""x"":1404,""y"":112,""timestamp"":104032.10000000894},""timestamp"":104032.10000000894},{""type"":""chart_hover"",""data"":{""x"":1404,""y"":106,""timestamp"":104048.40000000596},""timestamp"":104048.40000000596},{""type"":""chart_leave"",""data"":{""timestamp"":104065.70000000298},""timestamp"":104065.70000000298},{""type"":""chart_enter"",""data"":{""timestamp"":104436},""timestamp"":104436},{""type"":""chart_hover"",""data"":{""x"":1423,""y"":108,""timestamp"":104436},""timestamp"":104436},{""type"":""chart_hover"",""data"":{""x"":1400,""y"":129,""timestamp"":104469.29999999702},""timestamp"":104469.29999999702},{""type"":""chart_hover"",""data"":{""x"":1389,""y"":135,""timestamp"":104486.60000000894},""timestamp"":104486.60000000894},{""type"":""chart_hover"",""data"":{""x"":1389,""y"":134,""timestamp"":104685.79999999702},""timestamp"":104685.79999999702},{""type"":""chart_hover"",""data"":{""x"":1391,""y"":132,""timestamp"":104702.29999999702},""timestamp"":104702.29999999702},{""type"":""chart_hover"",""data"":{""x"":1393,""y"":127,""timestamp"":104719.5},""timestamp"":104719.5},{""type"":""chart_hover"",""data"":{""x"":1396,""y"":124,""timestamp"":104735.40000000596},""timestamp"":104735.40000000596},{""type"":""chart_hover"",""data"":{""x"":1399,""y"":120,""timestamp"":104752.10000000894},""timestamp"":104752.10000000894},{""type"":""chart_hover"",""data"":{""x"":1400,""y"":117,""timestamp"":104768.70000000298},""timestamp"":104768.70000000298},{""type"":""chart_hover"",""data"":{""x"":1406,""y"":111,""timestamp"":104791.29999999702},""timestamp"":104791.29999999702},{""type"":""chart_hover"",""data"":{""x"":1408,""y"":110,""timestamp"":104801.90000000596},""timestamp"":104802},{""type"":""chart_leave"",""data"":{""timestamp"":104822.40000000596},""timestamp"":104822.40000000596},{""type"":""chart_enter"",""data"":{""timestamp"":106301},""timestamp"":106301},{""type"":""chart_hover"",""data"":{""x"":1385,""y"":114,""timestamp"":106301},""timestamp"":106301},{""type"":""chart_hover"",""data"":{""x"":1377,""y"":122,""timestamp"":106317.79999999702},""timestamp"":106317.79999999702},{""type"":""chart_hover"",""data"":{""x"":1367,""y"":134,""timestamp"":106344.70000000298},""timestamp"":106344.70000000298},{""type"":""chart_hover"",""data"":{""x"":1365,""y"":136,""timestamp"":106357.10000000894},""timestamp"":106357.10000000894},{""type"":""chart_hover"",""data"":{""x"":1361,""y"":141,""timestamp"":106374},""timestamp"":106374},{""type"":""chart_hover"",""data"":{""x"":1354,""y"":146,""timestamp"":106385.90000000596},""timestamp"":106385.90000000596},{""type"":""chart_hover"",""data"":{""x"":1348,""y"":152,""timestamp"":106399.60000000894},""timestamp"":106399.60000000894},{""type"":""chart_hover"",""data"":{""x"":1341,""y"":162,""timestamp"":106425.90000000596},""timestamp"":106425.90000000596},{""type"":""chart_hover"",""data"":{""x"":1339,""y"":163,""timestamp"":106442.40000000596},""timestamp"":106442.40000000596},{""type"":""chart_hover"",""data"":{""x"":1339,""y"":164,""timestamp"":106454.20000000298},""timestamp"":106454.20000000298},{""type"":""chart_hover"",""data"":{""x"":1339,""y"":165,""timestamp"":106492.70000000298},""timestamp"":106492.70000000298},{""type"":""chart_hover"",""data"":{""x"":1338,""y"":166,""timestamp"":106517.79999999702},""timestamp"":106517.79999999702},{""type"":""chart_click"",""data"":{""x"":1338,""y"":166,""timestamp"":106518},""timestamp"":106518},{""type"":""chart_hover"",""data"":{""x"":1338,""y"":167,""timestamp"":106526.79999999702},""timestamp"":106526.79999999702},{""type"":""chart_hover"",""data"":{""x"":1337,""y"":169,""timestamp"":106543.40000000596},""timestamp"":106543.40000000596},{""type"":""chart_hover"",""data"":{""x"":1336,""y"":171,""timestamp"":106557.90000000596},""timestamp"":106557.90000000596},{""type"":""chart_hover"",""data"":{""x"":1333,""y"":178,""timestamp"":106574.79999999702},""timestamp"":106574.79999999702},{""type"":""chart_hover"",""data"":{""x"":1329,""y"":185,""timestamp"":106590.90000000596},""timestamp"":106590.90000000596},{""type"":""chart_hover"",""data"":{""x"":1323,""y"":205,""timestamp"":106608.5},""timestamp"":106608.5},{""type"":""chart_hover"",""data"":{""x"":1317,""y"":220,""timestamp"":106625.90000000596},""timestamp"":106625.90000000596},{""type"":""chart_hover"",""data"":{""x"":1310,""y"":237,""timestamp"":106640.29999999702},""timestamp"":106640.29999999702},{""type"":""chart_hover"",""data"":{""x"":1303,""y"":252,""timestamp"":106660.10000000894},""timestamp"":106660.10000000894},{""type"":""chart_hover"",""data"":{""x"":1295,""y"":271,""timestamp"":106674},""timestamp"":106674},{""type"":""chart_hover"",""data"":{""x"":1288,""y"":291,""timestamp"":106691},""timestamp"":106691},{""type"":""chart_hover"",""data"":{""x"":1281,""y"":310,""timestamp"":106707},""timestamp"":106707},{""type"":""chart_hover"",""data"":{""x"":1273,""y"":331,""timestamp"":106723.29999999702},""timestamp"":106723.29999999702},{""type"":""chart_hover"",""data"":{""x"":1264,""y"":354,""timestamp"":106740.10000000894},""timestamp"":106740.10000000894},{""type"":""chart_hover"",""data"":{""x"":1254,""y"":376,""timestamp"":106757.20000000298},""timestamp"":106757.20000000298},{""type"":""chart_hover"",""data"":{""x"":1244,""y"":395,""timestamp"":106773.20000000298},""timestamp"":106773.20000000298},{""type"":""chart_hover"",""data"":{""x"":1232,""y"":424,""timestamp"":106790.20000000298},""timestamp"":106790.20000000298},{""type"":""chart_hover"",""data"":{""x"":1220,""y"":445,""timestamp"":106807.10000000894},""timestamp"":106807.10000000894},{""type"":""chart_hover"",""data"":{""x"":1208,""y"":465,""timestamp"":106822.79999999702},""timestamp"":106822.79999999702},{""type"":""chart_hover"",""data"":{""x"":1198,""y"":484,""timestamp"":106840.29999999702},""timestamp"":106840.29999999702},{""type"":""chart_hover"",""data"":{""x"":1191,""y"":493,""timestamp"":106856.29999999702},""timestamp"":106856.29999999702},{""type"":""chart_hover"",""data"":{""x"":1186,""y"":497,""timestamp"":106873.29999999702},""timestamp"":106873.29999999702},{""type"":""chart_hover"",""data"":{""x"":1185,""y"":497,""timestamp"":106889.5},""timestamp"":106889.5},{""type"":""chart_hover"",""data"":{""x"":1182,""y"":497,""timestamp"":106906.20000000298},""timestamp"":106906.20000000298},{""type"":""chart_hover"",""data"":{""x"":1176,""y"":490,""timestamp"":106923.29999999702},""timestamp"":106923.29999999702},{""type"":""chart_hover"",""data"":{""x"":1175,""y"":488,""timestamp"":106939.40000000596},""timestamp"":106939.40000000596},{""type"":""chart_hover"",""data"":{""x"":1174,""y"":488,""timestamp"":107046.79999999702},""timestamp"":107046.79999999702},{""type"":""chart_hover"",""data"":{""x"":1174,""y"":489,""timestamp"":107062.20000000298},""timestamp"":107062.20000000298},{""type"":""chart_hover"",""data"":{""x"":1174,""y"":491,""timestamp"":107072.10000000894},""timestamp"":107072.10000000894},{""type"":""chart_hover"",""data"":{""x"":1174,""y"":501,""timestamp"":107089.20000000298},""timestamp"":107089.20000000298},{""type"":""chart_hover"",""data"":{""x"":1168,""y"":520,""timestamp"":107105.29999999702},""timestamp"":107105.29999999702},{""type"":""chart_hover"",""data"":{""x"":1163,""y"":546,""timestamp"":107122.10000000894},""timestamp"":107122.10000000894},{""type"":""chart_hover"",""data"":{""x"":1160,""y"":572,""timestamp"":107138},""timestamp"":107138},{""type"":""chart_hover"",""data"":{""x"":1156,""y"":595,""timestamp"":107154.5},""timestamp"":107154.5},{""type"":""chart_leave"",""data"":{""timestamp"":107171.70000000298},""timestamp"":107171.70000000298}]",0.0-8.0,670f6171756d8d3b2a73e819,,1,,,false,60,,,,1,126645.70000000298,,,true,,,,1537562,,,729,,,City A,8,prediction-task,,,,,,true
