city_a_estimate,city_b_estimate,click_events,comprehension_ease,condition,condition_id,condition_name,confidence_label,confidence_rating,data_trust,display_format,end_time,failed_audio,failed_images,failed_video,hover_events,interaction_log,internal_node_id,participant_id,percent_score,phase,phase1_complete,phase2_complete,predictions_shown,probability_estimate,question_order,response,responses,round,rt,rt_total,skeptical_rating,slider_moved,start_time,stimulus,success,time_elapsed,time_on_viz,timeout,total_interactions,total_questions,total_score,travel_choice,trial_index,trial_type,trust_composite,usability_composite,usability_difficulty,view_history,visualization_literacy_score,visualization_shown
,,,,,,,,,,,,"[]","[]","[]",,,0.0-0.0,5c199054acd3f3000145befb,,,,,,,,,,,,,,,,,true,677,,false,,,,,0,preload,,,,,,
,,,,,,,,,,,,,,,,,0.0-1.0,5c199054acd3f3000145befb,,,,,,,,0,,,6516,,,,,"
	        <div class=""welcome-screen"">
	            <h1>Air Quality Prediction Study</h1>
	            <p>Welcome! You are about to participate in a research study about how people make decisions using air quality predictions. This study examines how different ways of presenting prediction information affect trust and decision-making. The study will take approximately 15 minutes.</p>
	            <div class=""study-info"">
	                <h3>What you'll do:</h3>
	                <ul>
	                    <li>Complete a brief assessment of visualization understanding</li>
	                    <li>Make predictions about air quality in two cities</li>
	                    <li>Answer questions about your confidence and trust</li>
						<li>Report basic demographic data</li>
	                </ul>
	            </div>
	        </div>
	    ",,7194,,,,,,,1,html-button-response,,,,,,
,,,,,,,,,,,,,,,,,0.0-2.0,5c199054acd3f3000145befb,,,,,,,,,,,3210,,,,,,true,11411,,,,,,,2,fullscreen,,,,,,
,,,,,,,,,,,,,,,,,0.0-3.0,5c199054acd3f3000145befb,,,,,,,,"{""participant_id"":""5c199054acd3f3000145befb""}",,,3920,,,,,,,15340,,,,,,,3,survey-text,,,,,,
,,,,,,,,,,,,,,,,,0.0-4.0,5c199054acd3f3000145befb,,,,,,,,0,,,9104,,,,,"
	        <div class=""consent-form"">
	            <h2>Consent Form</h2>
	            <div class=""consent-header"">
	                <p><strong>Principal Investigator:</strong> Dr. Cindy Xiong Bearfield, Assistant Professor</p>
	                <p><strong>Study Title:</strong> Trusting What We See: Effect of Interactivity in Visual Data Analysis</p>
	                <p><strong>Supported By:</strong> Georgia Institute of Technology</p>
	            </div>
	            
	            <div class=""consent-details"">
	                <h3>WHAT IS THIS FORM?</h3>
	                <p>This form is called a Consent Form. It will give you information about the study so you can make an informed decision about participation in this research. We encourage you to take some time to think this over and ask questions now and at any other time. If you decide to participate, you will be asked to sign this form and you will be given a copy for your records.</p>

	                <h3>WHAT ARE SOME OF THE IMPORTANT ASPECTS OF THIS RESEARCH STUDY THAT I SHOULD BE AWARE OF?</h3>
	                <ul>
	                    <li>Whether or not you take part is up to you.</li>
	                    <li>You can choose not to take part.</li>
	                    <li>You can agree to take part and later change your mind.</li>
	                    <li>Your decision will not be held against you.</li>
	                </ul>

	                <h3>WHY ARE WE DOING THIS RESEARCH STUDY?</h3>
	                <p>The purpose of our study is to explore the visualization design space so we can understand how people perceive, interpret, and make decisions from visualizations. The results from this study can help us design visualizations and visualization guidelines to help people better communicate and understand data.</p>

	                <h3>WHO CAN PARTICIPATE IN THIS RESEARCH STUDY?</h3>
	                <p>Participants in this study must be at least 18 years of age or older and have general familiarity with using web-based systems. Participants currently outside of the U.S. cannot participate in this study (e.g. in the European Union or China).</p>

	                <h3>WHAT COMPENSATION I WILL RECEIVE?</h3>
	                <p>You will receive payment through Prolific worth $12/hour for participating in this study. We expect this study to take less than 20 minutes. Your participation is entirely voluntary. You are free to withdraw at any time, and if you do, you will receive partial payment for your time.</p>

	                <h3>HOW MANY PEOPLE WILL PARTICIPATE?</h3>
	                <p>We expect about 200 people will be in this research study.</p>

	                <h3>WHAT WILL I BE ASKED TO DO AND HOW MUCH TIME WILL IT TAKE?</h3>
	                <p>We will show you several data visualizations or components of a visualization and ask you to perform a visual task with the visualization on a computer screen, such as counting, searching, recognizing, memorizing, or describing the information presented to you. We may also ask you to fill out questionnaires concerning your thoughts regarding the visualization you saw. We expect that you will be in this research study to take between 15 and 60 minutes. We expect this study to be a one-off session and will not contact you regarding the study itself in the future.</p>

	                <h3>WILL BEING IN THIS RESEARCH STUDY HELP ME IN ANY WAY?</h3>
	                <p>You are not likely to have any direct benefit from being in this research study. The potential benefits to you from participation may include learning about how data visualization research is conducted, and you may learn about issues of current interest in data visualization and psychology.</p>

	                <h3>WHAT ARE MY RISKS OF BEING IN THIS RESEARCH STUDY?</h3>
	                <p>Your participation in this study does not involve any risks other than what you would encounter in daily life. In particular, you may experience fatigue or boredom, however, you may take breaks between tasks. The effects of participating should be comparable to those you would experience from viewing a computer monitor and using a keyboard. You may withdraw at any time.</p>

	                <h3>HOW WILL MY PERSONAL INFORMATION BE PROTECTED?</h3>
	                <p>We will comply with any applicable laws and regulations regarding confidentiality. To make sure that this research is being carried out in the proper way, the Georgia Institute of Technology IRB may review study records. The Office of Human Research Protections may also look at study records.</p>
	                <p>Efforts will be made to limit the use and disclosure of your personal information, including research study records, to people who need to review this information. We cannot promise complete secrecy. Organizations that may inspect and copy your information include the IRB and other representatives of this institution. Please be notified that our data privacy policy is based on U.S. regulations. Participants who are out of the U.S. might be excluded due to different data privacy requirements.</p>
	                <p><strong>Data Sharing:</strong> De-identified data from this study will be shared among the GATech research team, as well as the research community at large to advance science and health. We will remove or code any personal information that could identify you before files are shared with other researchers to ensure that, by current scientific standards and known methods, no one will be able to identify you from the information we share. Despite these measures, we cannot guarantee the anonymity of your personal data.</p>

	                <h3>WILL I BE GIVEN ANY MONEY OR OTHER COMPENSATION FOR BEING IN THIS RESEARCH STUDY?</h3>
	                <p>If you agree to take part in this research study, we will provide compensation. You will be paid in accordance with the stated policies of Amazon Mechanical Turk and/or Prolific.com. Payment will be made upon completion and acceptance of tasks that you have agreed to complete and you will be paid via Mechanical Turk or Prolific.com. If you choose to withdraw from the study, you will not be compensated for your participation.</p>

	                <h3>WHAT ELSE DO I NEED TO KNOW?</h3>
	                <p>We might be using attention check questions in our surveys. If you miss 2 or more attention check questions, your HIT will not be accepted and you will not be compensated.</p>

	                <h3>WHO CAN I TALK TO IF I HAVE QUESTIONS?</h3>
	                <p>If you have any questions about the content of this research project, you may contact Dr. Cindy Xiong Bearfield at cxiong@gatech.edu, or contact Songwen Hu at shu343@gatech.edu. If you have any questions about your rights as a research subject, you may also contact Georgia Institute of Technology Office of Research Integrity Assurance at IRB@gatech.edu.</p>

	                <h3>WHAT HAPPENS IF I SAY YES, BUT I CHANGE MY MIND LATER?</h3>
	                <p>You can decide not to participate in this research or you can start and then decide to leave the research at any time and it will not be held against you. To do so, simply exit the experiment. Any data already collected will not be saved.</p>

	                <p><strong>By clicking ""I agree"" below you are indicating that you are at least 18 years old, currently in the U.S., have read this consent form, and agree to participate in this research study. Please print a copy of this page for your records.</strong></p>
	            </div>
	        </div>
	    ",,24445,,,,,,,4,html-button-response,,,,,,
,,,,,,,,,,,,,,,,,0.0-5.0,5c199054acd3f3000145befb,,,,,,,,0,,,12293,,,,,"
	        <div class=""vis-literacy-intro"">
	            <h2>Visualization Assessment</h2>
	            <p>Before we begin the main study, we'd like to assess your ability to read and interpret data visualizations.</p>
	            
	            <div class=""assessment-info"">
	                <h3>What you'll do:</h3>
	                <ul>
	                    <li>View 12 different data visualizations (charts and graphs)</li>
	                    <li>Answer questions about what each visualization shows</li>
	                    <li>Take your time to examine each chart carefully</li>
	                </ul>
	                
	                <p><strong>This assessment will take approximately 5-10 minutes.</strong></p>
	                <p>There are no right or wrong interpretations - we're interested in how you read visualizations.</p>
	            </div>
	        </div>
	    ",,36738,,,,,,,5,html-button-response,,,,,,
,,,,,condition_8_bad,Bad Control,,,,,,,,,,,0.0-6.0,5c199054acd3f3000145befb,100,,,,,,,,"[{""question_id"":""minivlat_1"",""question_type"":""treemap"",""question_text"":""eBay is nested in the Software category."",""response"":1,""correct_answer"":1,""is_correct"":true,""rt"":12741.800000011921},{""question_id"":""minivlat_2"",""question_type"":""stacked_100_bar"",""question_text"":""Which country has the lowest proportion of Gold medals?"",""response"":1,""correct_answer"":1,""is_correct"":true,""rt"":18952.399999976158},{""question_id"":""minivlat_3"",""question_type"":""histogram"",""question_text"":""What distance have customers traveled the most?"",""response"":1,""correct_answer"":1,""is_correct"":true,""rt"":17189.400000035763},{""question_id"":""minivlat_4"",""question_type"":""choropleth"",""question_text"":""In 2020, the unemployment rate for Washington (WA) was higher than that of Wisconsin (WI)."",""response"":0,""correct_answer"":0,""is_correct"":true,""rt"":13027.5},{""question_id"":""minivlat_5"",""question_type"":""pie_chart"",""question_text"":""What is the approximate global smartphone market share of Samsung?"",""response"":0,""correct_answer"":0,""is_correct"":true,""rt"":23469.19999998808},{""question_id"":""minivlat_6"",""question_type"":""bubble_chart"",""question_text"":""Which has the largest number of metro stations?"",""response"":1,""correct_answer"":1,""is_correct"":true,""rt"":26452.80000001192},{""question_id"":""minivlat_7"",""question_type"":""stacked_bar"",""question_text"":""What is the cost of peanuts in Seoul?"",""response"":1,""correct_answer"":1,""is_correct"":true,""rt"":75113.69999998808},{""question_id"":""minivlat_8"",""question_type"":""line_chart"",""question_text"":""What was the price of a barrel of oil in February 2020?"",""response"":0,""correct_answer"":0,""is_correct"":true,""rt"":16673},{""question_id"":""minivlat_9"",""question_type"":""bar_chart"",""question_text"":""What is the average internet speed in Japan?"",""response"":1,""correct_answer"":1,""is_correct"":true,""rt"":17061.200000047684},{""question_id"":""minivlat_10"",""question_type"":""area_chart"",""question_text"":""What was the average price of a pound of coffee in October 2019?"",""response"":0,""correct_answer"":0,""is_correct"":true,""rt"":9646.799999952316},{""question_id"":""minivlat_11"",""question_type"":""stacked_area"",""question_text"":""What was the ratio of girls named \""Isla\"" to girls named \""Amelia\"" in 2012 in the UK?"",""response"":1,""correct_answer"":1,""is_correct"":true,""rt"":70672.30000001192},{""question_id"":""minivlat_12"",""question_type"":""scatter_plot"",""question_text"":""There is a negative relationship between the height and weight of the 85 males."",""response"":1,""correct_answer"":1,""is_correct"":true,""rt"":27593.600000023842}]",,,328593.7000000477,,,,,,365333,,,,12,12,,6,vis-literacy,,,,,,
,,,,,,,,,,,,,,,,,0.0-7.0,5c199054acd3f3000145befb,,,,,,,,,,,15960,,,,,,,381294,,,,,,,7,instructions,,,,"[{""page_index"":0,""viewing_time"":15960}]",,
90,87,,,,condition_0_historical,Historical Only,Somewhat Certain,5,,historical_only,,,,,,"[{""type"":""chart_enter"",""data"":{""timestamp"":638.5},""timestamp"":638.5},{""type"":""chart_hover"",""data"":{""x"":1005,""y"":433,""timestamp"":1051.8999999761581},""timestamp"":1051.8999999761581},{""type"":""chart_hover"",""data"":{""x"":1003,""y"":433,""timestamp"":1058.1000000238419},""timestamp"":1058.1000000238419},{""type"":""chart_hover"",""data"":{""x"":994,""y"":433,""timestamp"":1065.5},""timestamp"":1065.5},{""type"":""chart_hover"",""data"":{""x"":971,""y"":435,""timestamp"":1073.300000011921},""timestamp"":1073.300000011921},{""type"":""chart_hover"",""data"":{""x"":946,""y"":436,""timestamp"":1081.1000000238419},""timestamp"":1081.1000000238419},{""type"":""chart_hover"",""data"":{""x"":900,""y"":438,""timestamp"":1088.300000011921},""timestamp"":1088.300000011921},{""type"":""chart_hover"",""data"":{""x"":859,""y"":438,""timestamp"":1095.8999999761581},""timestamp"":1095.8999999761581},{""type"":""chart_hover"",""data"":{""x"":831,""y"":439,""timestamp"":1103.199999988079},""timestamp"":1103.199999988079},{""type"":""chart_hover"",""data"":{""x"":780,""y"":439,""timestamp"":1110.800000011921},""timestamp"":1110.800000011921},{""type"":""chart_hover"",""data"":{""x"":715,""y"":442,""timestamp"":1118.5},""timestamp"":1118.5},{""type"":""chart_hover"",""data"":{""x"":666,""y"":442,""timestamp"":1126.1000000238419},""timestamp"":1126.1000000238419},{""type"":""chart_hover"",""data"":{""x"":536,""y"":442,""timestamp"":1144.8999999761581},""timestamp"":1144.8999999761581},{""type"":""chart_hover"",""data"":{""x"":487,""y"":442,""timestamp"":1151.699999988079},""timestamp"":1151.800000011921},{""type"":""chart_hover"",""data"":{""x"":468,""y"":442,""timestamp"":1158.6000000238419},""timestamp"":1158.6000000238419},{""type"":""chart_hover"",""data"":{""x"":414,""y"":443,""timestamp"":1165.5},""timestamp"":1165.5},{""type"":""chart_hover"",""data"":{""x"":362,""y"":445,""timestamp"":1172.3999999761581},""timestamp"":1172.3999999761581},{""type"":""chart_leave"",""data"":{""timestamp"":1179.8999999761581},""timestamp"":1179.8999999761581},{""type"":""chart_enter"",""data"":{""timestamp"":40664.69999998808},""timestamp"":40664.69999998808},{""type"":""chart_hover"",""data"":{""x"":994,""y"":585,""timestamp"":40667.69999998808},""timestamp"":40667.69999998808},{""type"":""chart_hover"",""data"":{""x"":993,""y"":581,""timestamp"":40674.5},""timestamp"":40674.5},{""type"":""chart_hover"",""data"":{""x"":993,""y"":578,""timestamp"":40681.80000001192},""timestamp"":40681.80000001192},{""type"":""chart_hover"",""data"":{""x"":993,""y"":574,""timestamp"":40688.39999997616},""timestamp"":40688.39999997616},{""type"":""chart_hover"",""data"":{""x"":992,""y"":563,""timestamp"":40695.39999997616},""timestamp"":40695.39999997616},{""type"":""chart_hover"",""data"":{""x"":992,""y"":559,""timestamp"":40702.39999997616},""timestamp"":40702.39999997616},{""type"":""chart_hover"",""data"":{""x"":992,""y"":555,""timestamp"":40709.30000001192},""timestamp"":40709.30000001192},{""type"":""chart_hover"",""data"":{""x"":990,""y"":540,""timestamp"":40723.10000002384},""timestamp"":40723.10000002384},{""type"":""chart_hover"",""data"":{""x"":989,""y"":533,""timestamp"":40771.69999998808},""timestamp"":40771.69999998808},{""type"":""chart_hover"",""data"":{""x"":987,""y"":529,""timestamp"":40778.69999998808},""timestamp"":40778.69999998808},{""type"":""chart_hover"",""data"":{""x"":981,""y"":511,""timestamp"":40785.69999998808},""timestamp"":40785.69999998808},{""type"":""chart_hover"",""data"":{""x"":980,""y"":511,""timestamp"":40792.5},""timestamp"":40792.5},{""type"":""chart_click"",""data"":{""x"":980,""y"":511,""timestamp"":41107},""timestamp"":41107.10000002384},{""type"":""chart_hover"",""data"":{""x"":979,""y"":512,""timestamp"":41229.39999997616},""timestamp"":41229.39999997616},{""type"":""chart_hover"",""data"":{""x"":978,""y"":515,""timestamp"":41236.39999997616},""timestamp"":41236.39999997616},{""type"":""chart_hover"",""data"":{""x"":977,""y"":519,""timestamp"":41244.5},""timestamp"":41244.5},{""type"":""chart_hover"",""data"":{""x"":974,""y"":529,""timestamp"":41262.30000001192},""timestamp"":41262.30000001192},{""type"":""chart_hover"",""data"":{""x"":974,""y"":533,""timestamp"":41269.19999998808},""timestamp"":41269.19999998808},{""type"":""chart_hover"",""data"":{""x"":974,""y"":537,""timestamp"":41276.19999998808},""timestamp"":41276.19999998808},{""type"":""chart_hover"",""data"":{""x"":974,""y"":539,""timestamp"":41283.10000002384},""timestamp"":41283.10000002384},{""type"":""chart_hover"",""data"":{""x"":974,""y"":541,""timestamp"":41290.80000001192},""timestamp"":41290.80000001192},{""type"":""chart_hover"",""data"":{""x"":974,""y"":544,""timestamp"":41297},""timestamp"":41297},{""type"":""chart_hover"",""data"":{""x"":974,""y"":546,""timestamp"":41303.89999997616},""timestamp"":41303.89999997616},{""type"":""chart_hover"",""data"":{""x"":974,""y"":549,""timestamp"":41310.89999997616},""timestamp"":41310.89999997616},{""type"":""chart_hover"",""data"":{""x"":974,""y"":552,""timestamp"":41317.80000001192},""timestamp"":41317.80000001192},{""type"":""chart_hover"",""data"":{""x"":974,""y"":553,""timestamp"":41324.69999998808},""timestamp"":41324.69999998808},{""type"":""chart_hover"",""data"":{""x"":974,""y"":557,""timestamp"":41331.89999997616},""timestamp"":41331.89999997616},{""type"":""chart_hover"",""data"":{""x"":974,""y"":558,""timestamp"":41338.80000001192},""timestamp"":41338.80000001192},{""type"":""chart_hover"",""data"":{""x"":974,""y"":564,""timestamp"":41345.69999998808},""timestamp"":41345.69999998808},{""type"":""chart_hover"",""data"":{""x"":974,""y"":570,""timestamp"":41353},""timestamp"":41353},{""type"":""chart_hover"",""data"":{""x"":976,""y"":581,""timestamp"":41360.39999997616},""timestamp"":41360.39999997616},{""type"":""chart_hover"",""data"":{""x"":978,""y"":588,""timestamp"":41370.80000001192},""timestamp"":41370.80000001192},{""type"":""chart_leave"",""data"":{""timestamp"":41378.5},""timestamp"":41378.5},{""type"":""chart_enter"",""data"":{""timestamp"":50079.89999997616},""timestamp"":50079.89999997616},{""type"":""chart_hover"",""data"":{""x"":952,""y"":570,""timestamp"":50079.89999997616},""timestamp"":50079.89999997616},{""type"":""chart_hover"",""data"":{""x"":955,""y"":560,""timestamp"":50089.5},""timestamp"":50089.5},{""type"":""chart_hover"",""data"":{""x"":959,""y"":549,""timestamp"":50096.5},""timestamp"":50096.5},{""type"":""chart_hover"",""data"":{""x"":964,""y"":541,""timestamp"":50104.19999998808},""timestamp"":50104.19999998808},{""type"":""chart_hover"",""data"":{""x"":968,""y"":532,""timestamp"":50110.60000002384},""timestamp"":50110.60000002384},{""type"":""chart_hover"",""data"":{""x"":973,""y"":521,""timestamp"":50117.30000001192},""timestamp"":50117.30000001192},{""type"":""chart_hover"",""data"":{""x"":979,""y"":509,""timestamp"":50124.19999998808},""timestamp"":50124.19999998808},{""type"":""chart_hover"",""data"":{""x"":986,""y"":496,""timestamp"":50131.30000001192},""timestamp"":50131.30000001192},{""type"":""chart_hover"",""data"":{""x"":993,""y"":475,""timestamp"":50151.5},""timestamp"":50151.5},{""type"":""chart_hover"",""data"":{""x"":995,""y"":465,""timestamp"":50158.5},""timestamp"":50158.5},{""type"":""chart_hover"",""data"":{""x"":996,""y"":454,""timestamp"":50180.10000002384},""timestamp"":50180.10000002384},{""type"":""chart_hover"",""data"":{""x"":996,""y"":450,""timestamp"":50186.69999998808},""timestamp"":50186.69999998808},{""type"":""chart_hover"",""data"":{""x"":996,""y"":449,""timestamp"":50194.80000001192},""timestamp"":50194.80000001192},{""type"":""chart_hover"",""data"":{""x"":996,""y"":446,""timestamp"":50200.80000001192},""timestamp"":50200.80000001192},{""type"":""chart_hover"",""data"":{""x"":996,""y"":443,""timestamp"":50207.69999998808},""timestamp"":50207.69999998808},{""type"":""chart_hover"",""data"":{""x"":997,""y"":440,""timestamp"":50213.80000001192},""timestamp"":50213.80000001192},{""type"":""chart_hover"",""data"":{""x"":997,""y"":436,""timestamp"":50220.60000002384},""timestamp"":50220.60000002384},{""type"":""chart_hover"",""data"":{""x"":998,""y"":433,""timestamp"":50227.39999997616},""timestamp"":50227.39999997616},{""type"":""chart_hover"",""data"":{""x"":999,""y"":431,""timestamp"":50235.19999998808},""timestamp"":50235.19999998808},{""type"":""chart_hover"",""data"":{""x"":999,""y"":430,""timestamp"":50248.5},""timestamp"":50248.5},{""type"":""chart_hover"",""data"":{""x"":1000,""y"":429,""timestamp"":50255.89999997616},""timestamp"":50255.89999997616},{""type"":""chart_hover"",""data"":{""x"":1001,""y"":427,""timestamp"":50270.10000002384},""timestamp"":50270.10000002384},{""type"":""chart_hover"",""data"":{""x"":1002,""y"":425,""timestamp"":50276.69999998808},""timestamp"":50276.69999998808},{""type"":""chart_hover"",""data"":{""x"":1003,""y"":424,""timestamp"":50281},""timestamp"":50281},{""type"":""chart_hover"",""data"":{""x"":1005,""y"":422,""timestamp"":50287.69999998808},""timestamp"":50287.69999998808},{""type"":""chart_hover"",""data"":{""x"":1005,""y"":421,""timestamp"":50294.60000002384},""timestamp"":50294.60000002384},{""type"":""chart_hover"",""data"":{""x"":1005,""y"":420,""timestamp"":50301.80000001192},""timestamp"":50301.80000001192},{""type"":""chart_hover"",""data"":{""x"":1007,""y"":419,""timestamp"":50308.5},""timestamp"":50308.5},{""type"":""chart_hover"",""data"":{""x"":1008,""y"":418,""timestamp"":50322.5},""timestamp"":50322.5},{""type"":""chart_hover"",""data"":{""x"":1009,""y"":417,""timestamp"":50329.5},""timestamp"":50329.5},{""type"":""chart_hover"",""data"":{""x"":1010,""y"":416,""timestamp"":50336.60000002384},""timestamp"":50336.60000002384},{""type"":""chart_hover"",""data"":{""x"":1011,""y"":415,""timestamp"":50343.30000001192},""timestamp"":50343.30000001192},{""type"":""chart_hover"",""data"":{""x"":1012,""y"":415,""timestamp"":50350.39999997616},""timestamp"":50350.39999997616},{""type"":""chart_hover"",""data"":{""x"":1013,""y"":414,""timestamp"":50357.19999998808},""timestamp"":50357.19999998808},{""type"":""chart_hover"",""data"":{""x"":1016,""y"":411,""timestamp"":50364.19999998808},""timestamp"":50364.19999998808},{""type"":""chart_hover"",""data"":{""x"":1022,""y"":410,""timestamp"":50371},""timestamp"":50371},{""type"":""chart_hover"",""data"":{""x"":1025,""y"":408,""timestamp"":50377.89999997616},""timestamp"":50377.89999997616},{""type"":""chart_hover"",""data"":{""x"":1030,""y"":406,""timestamp"":50385.10000002384},""timestamp"":50385.10000002384},{""type"":""chart_hover"",""data"":{""x"":1036,""y"":404,""timestamp"":50391.69999998808},""timestamp"":50391.69999998808},{""type"":""chart_hover"",""data"":{""x"":1044,""y"":400,""timestamp"":50399},""timestamp"":50399},{""type"":""chart_hover"",""data"":{""x"":1047,""y"":399,""timestamp"":50406.80000001192},""timestamp"":50406.80000001192},{""type"":""chart_hover"",""data"":{""x"":1054,""y"":396,""timestamp"":50413.5},""timestamp"":50413.5},{""type"":""chart_hover"",""data"":{""x"":1062,""y"":393,""timestamp"":50421.10000002384},""timestamp"":50421.10000002384},{""type"":""chart_hover"",""data"":{""x"":1071,""y"":390,""timestamp"":50429.10000002384},""timestamp"":50429.10000002384},{""type"":""chart_hover"",""data"":{""x"":1080,""y"":386,""timestamp"":50435.60000002384},""timestamp"":50435.60000002384},{""type"":""chart_hover"",""data"":{""x"":1088,""y"":382,""timestamp"":50444.10000002384},""timestamp"":50444.10000002384},{""type"":""chart_hover"",""data"":{""x"":1095,""y"":379,""timestamp"":50450.5},""timestamp"":50450.5},{""type"":""chart_hover"",""data"":{""x"":1098,""y"":378,""timestamp"":50458},""timestamp"":50458},{""type"":""chart_hover"",""data"":{""x"":1100,""y"":377,""timestamp"":50466.39999997616},""timestamp"":50466.39999997616},{""type"":""chart_hover"",""data"":{""x"":1104,""y"":375,""timestamp"":50473.60000002384},""timestamp"":50473.60000002384},{""type"":""chart_hover"",""data"":{""x"":1105,""y"":374,""timestamp"":50486.10000002384},""timestamp"":50486.10000002384},{""type"":""chart_click"",""data"":{""x"":1105,""y"":374,""timestamp"":50601.69999998808},""timestamp"":50601.69999998808},{""type"":""chart_hover"",""data"":{""x"":1106,""y"":374,""timestamp"":50639.80000001192},""timestamp"":50639.80000001192},{""type"":""chart_hover"",""data"":{""x"":1110,""y"":372,""timestamp"":50645.89999997616},""timestamp"":50645.89999997616},{""type"":""chart_hover"",""data"":{""x"":1113,""y"":372,""timestamp"":50653.30000001192},""timestamp"":50653.30000001192},{""type"":""chart_hover"",""data"":{""x"":1117,""y"":370,""timestamp"":50660.5},""timestamp"":50660.60000002384},{""type"":""chart_hover"",""data"":{""x"":1123,""y"":367,""timestamp"":50668.5},""timestamp"":50668.60000002384},{""type"":""chart_hover"",""data"":{""x"":1125,""y"":366,""timestamp"":50676.5},""timestamp"":50676.5},{""type"":""chart_hover"",""data"":{""x"":1130,""y"":363,""timestamp"":50683.30000001192},""timestamp"":50683.39999997616},{""type"":""chart_hover"",""data"":{""x"":1134,""y"":361,""timestamp"":50697.69999998808},""timestamp"":50697.69999998808},{""type"":""chart_hover"",""data"":{""x"":1142,""y"":358,""timestamp"":50705},""timestamp"":50705.10000002384},{""type"":""chart_hover"",""data"":{""x"":1150,""y"":355,""timestamp"":50712.39999997616},""timestamp"":50712.39999997616},{""type"":""chart_hover"",""data"":{""x"":1155,""y"":353,""timestamp"":50718.69999998808},""timestamp"":50718.69999998808},{""type"":""chart_hover"",""data"":{""x"":1161,""y"":350,""timestamp"":50725.5},""timestamp"":50725.5},{""type"":""chart_hover"",""data"":{""x"":1171,""y"":346,""timestamp"":50775},""timestamp"":50775},{""type"":""chart_hover"",""data"":{""x"":1175,""y"":346,""timestamp"":50783.19999998808},""timestamp"":50783.19999998808},{""type"":""chart_hover"",""data"":{""x"":1179,""y"":344,""timestamp"":50791.39999997616},""timestamp"":50791.39999997616},{""type"":""chart_click"",""data"":{""x"":1179,""y"":344,""timestamp"":50848.5},""timestamp"":50848.5},{""type"":""chart_hover"",""data"":{""x"":1181,""y"":343,""timestamp"":50864.39999997616},""timestamp"":50864.39999997616},{""type"":""chart_hover"",""data"":{""x"":1190,""y"":341,""timestamp"":50871.19999998808},""timestamp"":50871.19999998808},{""type"":""chart_hover"",""data"":{""x"":1201,""y"":338,""timestamp"":50879.19999998808},""timestamp"":50879.19999998808},{""type"":""chart_hover"",""data"":{""x"":1217,""y"":332,""timestamp"":50886.39999997616},""timestamp"":50886.39999997616},{""type"":""chart_hover"",""data"":{""x"":1226,""y"":328,""timestamp"":50893.30000001192},""timestamp"":50893.30000001192},{""type"":""chart_hover"",""data"":{""x"":1245,""y"":318,""timestamp"":50903.60000002384},""timestamp"":50903.60000002384},{""type"":""chart_hover"",""data"":{""x"":1285,""y"":296,""timestamp"":50912},""timestamp"":50912},{""type"":""chart_hover"",""data"":{""x"":1323,""y"":269,""timestamp"":50918.80000001192},""timestamp"":50918.80000001192},{""type"":""chart_hover"",""data"":{""x"":1364,""y"":242,""timestamp"":50926.39999997616},""timestamp"":50926.39999997616},{""type"":""chart_hover"",""data"":{""x"":1394,""y"":219,""timestamp"":50933.89999997616},""timestamp"":50933.89999997616},{""type"":""chart_hover"",""data"":{""x"":1427,""y"":197,""timestamp"":50941.5},""timestamp"":50941.5},{""type"":""chart_hover"",""data"":{""x"":1443,""y"":186,""timestamp"":50948.60000002384},""timestamp"":50948.60000002384},{""type"":""chart_hover"",""data"":{""x"":1478,""y"":162,""timestamp"":50956.5},""timestamp"":50956.60000002384},{""type"":""chart_hover"",""data"":{""x"":1514,""y"":138,""timestamp"":50964.39999997616},""timestamp"":50964.39999997616},{""type"":""chart_hover"",""data"":{""x"":1546,""y"":114,""timestamp"":50970.89999997616},""timestamp"":50970.89999997616},{""type"":""chart_leave"",""data"":{""timestamp"":50979.10000002384},""timestamp"":50979.10000002384},{""type"":""chart_enter"",""data"":{""timestamp"":52246.19999998808},""timestamp"":52246.19999998808},{""type"":""chart_hover"",""data"":{""x"":1391,""y"":118,""timestamp"":52246.19999998808},""timestamp"":52246.19999998808},{""type"":""chart_hover"",""data"":{""x"":1387,""y"":120,""timestamp"":52256.60000002384},""timestamp"":52256.60000002384},{""type"":""chart_hover"",""data"":{""x"":1364,""y"":133,""timestamp"":52265},""timestamp"":52265},{""type"":""chart_hover"",""data"":{""x"":1335,""y"":150,""timestamp"":52270.69999998808},""timestamp"":52270.69999998808},{""type"":""chart_hover"",""data"":{""x"":1302,""y"":172,""timestamp"":52277.19999998808},""timestamp"":52277.19999998808},{""type"":""chart_hover"",""data"":{""x"":1286,""y"":181,""timestamp"":52284.19999998808},""timestamp"":52284.19999998808},{""type"":""chart_hover"",""data"":{""x"":1252,""y"":202,""timestamp"":52291.19999998808},""timestamp"":52291.19999998808},{""type"":""chart_hover"",""data"":{""x"":1236,""y"":211,""timestamp"":52297.69999998808},""timestamp"":52297.69999998808},{""type"":""chart_hover"",""data"":{""x"":1228,""y"":215,""timestamp"":52304.89999997616},""timestamp"":52305},{""type"":""chart_hover"",""data"":{""x"":1202,""y"":230,""timestamp"":52311.5},""timestamp"":52311.5},{""type"":""chart_hover"",""data"":{""x"":1186,""y"":239,""timestamp"":52325.80000001192},""timestamp"":52325.80000001192},{""type"":""chart_hover"",""data"":{""x"":1170,""y"":248,""timestamp"":52333.5},""timestamp"":52333.5},{""type"":""chart_hover"",""data"":{""x"":1154,""y"":258,""timestamp"":52339.69999998808},""timestamp"":52339.69999998808},{""type"":""chart_hover"",""data"":{""x"":1138,""y"":267,""timestamp"":52346.69999998808},""timestamp"":52346.69999998808},{""type"":""chart_hover"",""data"":{""x"":1109,""y"":284,""timestamp"":52353.39999997616},""timestamp"":52353.39999997616},{""type"":""chart_hover"",""data"":{""x"":1093,""y"":292,""timestamp"":52360.39999997616},""timestamp"":52360.39999997616},{""type"":""chart_hover"",""data"":{""x"":1089,""y"":295,""timestamp"":52367.80000001192},""timestamp"":52367.80000001192},{""type"":""chart_hover"",""data"":{""x"":1076,""y"":300,""timestamp"":52374.30000001192},""timestamp"":52374.30000001192},{""type"":""chart_hover"",""data"":{""x"":1065,""y"":305,""timestamp"":52381.5},""timestamp"":52381.5},{""type"":""chart_hover"",""data"":{""x"":1058,""y"":308,""timestamp"":52388.10000002384},""timestamp"":52388.10000002384},{""type"":""chart_hover"",""data"":{""x"":1054,""y"":310,""timestamp"":52394.80000001192},""timestamp"":52394.80000001192},{""type"":""chart_hover"",""data"":{""x"":1051,""y"":310,""timestamp"":52402.10000002384},""timestamp"":52402.10000002384},{""type"":""chart_hover"",""data"":{""x"":1050,""y"":310,""timestamp"":52408.80000001192},""timestamp"":52408.80000001192},{""type"":""chart_hover"",""data"":{""x"":1050,""y"":311,""timestamp"":52795.10000002384},""timestamp"":52795.10000002384},{""type"":""chart_hover"",""data"":{""x"":1053,""y"":314,""timestamp"":52801.80000001192},""timestamp"":52801.80000001192},{""type"":""chart_hover"",""data"":{""x"":1060,""y"":318,""timestamp"":52809.69999998808},""timestamp"":52809.69999998808},{""type"":""chart_hover"",""data"":{""x"":1067,""y"":321,""timestamp"":52817.60000002384},""timestamp"":52817.60000002384},{""type"":""chart_hover"",""data"":{""x"":1075,""y"":324,""timestamp"":52824.39999997616},""timestamp"":52824.39999997616},{""type"":""chart_hover"",""data"":{""x"":1083,""y"":326,""timestamp"":52831.80000001192},""timestamp"":52831.80000001192},{""type"":""chart_hover"",""data"":{""x"":1092,""y"":328,""timestamp"":52838.89999997616},""timestamp"":52838.89999997616},{""type"":""chart_hover"",""data"":{""x"":1096,""y"":329,""timestamp"":52846.39999997616},""timestamp"":52846.39999997616},{""type"":""chart_hover"",""data"":{""x"":1105,""y"":330,""timestamp"":52854.19999998808},""timestamp"":52854.19999998808},{""type"":""chart_hover"",""data"":{""x"":1112,""y"":330,""timestamp"":52861.69999998808},""timestamp"":52861.80000001192},{""type"":""chart_hover"",""data"":{""x"":1124,""y"":331,""timestamp"":52868.10000002384},""timestamp"":52868.10000002384},{""type"":""chart_hover"",""data"":{""x"":1133,""y"":331,""timestamp"":52874.69999998808},""timestamp"":52874.69999998808},{""type"":""chart_hover"",""data"":{""x"":1142,""y"":331,""timestamp"":52881.10000002384},""timestamp"":52881.10000002384},{""type"":""chart_hover"",""data"":{""x"":1152,""y"":331,""timestamp"":52888.30000001192},""timestamp"":52888.30000001192},{""type"":""chart_hover"",""data"":{""x"":1161,""y"":331,""timestamp"":52895.69999998808},""timestamp"":52895.69999998808},{""type"":""chart_hover"",""data"":{""x"":1162,""y"":331,""timestamp"":52903.39999997616},""timestamp"":52903.39999997616},{""type"":""chart_hover"",""data"":{""x"":1170,""y"":331,""timestamp"":52918.10000002384},""timestamp"":52918.19999998808},{""type"":""chart_hover"",""data"":{""x"":1173,""y"":331,""timestamp"":52925.30000001192},""timestamp"":52925.30000001192},{""type"":""chart_hover"",""data"":{""x"":1176,""y"":331,""timestamp"":52932.89999997616},""timestamp"":52932.89999997616},{""type"":""chart_hover"",""data"":{""x"":1177,""y"":331,""timestamp"":52943.89999997616},""timestamp"":52944},{""type"":""chart_hover"",""data"":{""x"":1178,""y"":330,""timestamp"":53335},""timestamp"":53335},{""type"":""chart_hover"",""data"":{""x"":1180,""y"":330,""timestamp"":53354.69999998808},""timestamp"":53354.69999998808},{""type"":""chart_hover"",""data"":{""x"":1182,""y"":329,""timestamp"":53364.30000001192},""timestamp"":53364.30000001192},{""type"":""chart_hover"",""data"":{""x"":1184,""y"":328,""timestamp"":53371.69999998808},""timestamp"":53371.69999998808},{""type"":""chart_hover"",""data"":{""x"":1185,""y"":327,""timestamp"":53379},""timestamp"":53379},{""type"":""chart_hover"",""data"":{""x"":1187,""y"":326,""timestamp"":53386.30000001192},""timestamp"":53386.30000001192},{""type"":""chart_hover"",""data"":{""x"":1190,""y"":325,""timestamp"":53394.19999998808},""timestamp"":53394.30000001192},{""type"":""chart_hover"",""data"":{""x"":1191,""y"":324,""timestamp"":53401.39999997616},""timestamp"":53401.39999997616},{""type"":""chart_hover"",""data"":{""x"":1193,""y"":323,""timestamp"":53408.10000002384},""timestamp"":53408.10000002384},{""type"":""chart_hover"",""data"":{""x"":1195,""y"":322,""timestamp"":53414.80000001192},""timestamp"":53414.80000001192},{""type"":""chart_hover"",""data"":{""x"":1200,""y"":319,""timestamp"":53420.80000001192},""timestamp"":53420.80000001192},{""type"":""chart_hover"",""data"":{""x"":1201,""y"":319,""timestamp"":53428.30000001192},""timestamp"":53428.30000001192},{""type"":""chart_hover"",""data"":{""x"":1202,""y"":318,""timestamp"":53435.80000001192},""timestamp"":53435.80000001192},{""type"":""chart_hover"",""data"":{""x"":1203,""y"":317,""timestamp"":53451.89999997616},""timestamp"":53451.89999997616},{""type"":""chart_hover"",""data"":{""x"":1204,""y"":317,""timestamp"":53461.89999997616},""timestamp"":53461.89999997616},{""type"":""chart_hover"",""data"":{""x"":1205,""y"":316,""timestamp"":53469.10000002384},""timestamp"":53469.10000002384},{""type"":""chart_hover"",""data"":{""x"":1206,""y"":316,""timestamp"":53486.89999997616},""timestamp"":53486.89999997616},{""type"":""chart_hover"",""data"":{""x"":1206,""y"":315,""timestamp"":53499.19999998808},""timestamp"":53499.19999998808},{""type"":""chart_hover"",""data"":{""x"":1207,""y"":315,""timestamp"":53506.89999997616},""timestamp"":53506.89999997616},{""type"":""chart_hover"",""data"":{""x"":1207,""y"":314,""timestamp"":53513.89999997616},""timestamp"":53513.89999997616},{""type"":""chart_hover"",""data"":{""x"":1208,""y"":314,""timestamp"":53528.30000001192},""timestamp"":53528.30000001192},{""type"":""chart_hover"",""data"":{""x"":1210,""y"":314,""timestamp"":53536.5},""timestamp"":53536.5},{""type"":""chart_hover"",""data"":{""x"":1211,""y"":313,""timestamp"":53542.5},""timestamp"":53542.5},{""type"":""chart_hover"",""data"":{""x"":1212,""y"":313,""timestamp"":53549.19999998808},""timestamp"":53549.19999998808},{""type"":""chart_hover"",""data"":{""x"":1213,""y"":312,""timestamp"":53556.39999997616},""timestamp"":53556.39999997616},{""type"":""chart_hover"",""data"":{""x"":1214,""y"":312,""timestamp"":53565.19999998808},""timestamp"":53565.19999998808},{""type"":""chart_hover"",""data"":{""x"":1214,""y"":311,""timestamp"":53572.30000001192},""timestamp"":53572.30000001192},{""type"":""chart_hover"",""data"":{""x"":1215,""y"":311,""timestamp"":53579.5},""timestamp"":53579.5},{""type"":""chart_hover"",""data"":{""x"":1216,""y"":311,""timestamp"":53634.60000002384},""timestamp"":53634.60000002384},{""type"":""chart_hover"",""data"":{""x"":1218,""y"":311,""timestamp"":53653.5},""timestamp"":53653.5},{""type"":""chart_hover"",""data"":{""x"":1219,""y"":311,""timestamp"":53664.30000001192},""timestamp"":53664.30000001192},{""type"":""chart_hover"",""data"":{""x"":1220,""y"":310,""timestamp"":53671.80000001192},""timestamp"":53671.80000001192},{""type"":""chart_hover"",""data"":{""x"":1221,""y"":310,""timestamp"":53679.10000002384},""timestamp"":53679.10000002384},{""type"":""chart_hover"",""data"":{""x"":1223,""y"":310,""timestamp"":53686.19999998808},""timestamp"":53686.19999998808},{""type"":""chart_hover"",""data"":{""x"":1226,""y"":310,""timestamp"":53694.19999998808},""timestamp"":53694.19999998808},{""type"":""chart_hover"",""data"":{""x"":1227,""y"":310,""timestamp"":53709.69999998808},""timestamp"":53709.69999998808},{""type"":""chart_hover"",""data"":{""x"":1228,""y"":311,""timestamp"":53729.69999998808},""timestamp"":53729.69999998808},{""type"":""chart_hover"",""data"":{""x"":1228,""y"":313,""timestamp"":53777.69999998808},""timestamp"":53777.69999998808},{""type"":""chart_hover"",""data"":{""x"":1228,""y"":315,""timestamp"":53784.19999998808},""timestamp"":53784.19999998808},{""type"":""chart_hover"",""data"":{""x"":1228,""y"":316,""timestamp"":53792.19999998808},""timestamp"":53792.19999998808},{""type"":""chart_hover"",""data"":{""x"":1228,""y"":317,""timestamp"":53845.5},""timestamp"":53845.5},{""type"":""chart_hover"",""data"":{""x"":1228,""y"":318,""timestamp"":53851.10000002384},""timestamp"":53851.10000002384},{""type"":""chart_hover"",""data"":{""x"":1228,""y"":324,""timestamp"":53856.30000001192},""timestamp"":53856.30000001192},{""type"":""chart_hover"",""data"":{""x"":1228,""y"":326,""timestamp"":53863.39999997616},""timestamp"":53863.39999997616},{""type"":""chart_hover"",""data"":{""x"":1228,""y"":328,""timestamp"":53871},""timestamp"":53871},{""type"":""chart_hover"",""data"":{""x"":1228,""y"":330,""timestamp"":53888.30000001192},""timestamp"":53888.30000001192},{""type"":""chart_hover"",""data"":{""x"":1228,""y"":329,""timestamp"":53931.80000001192},""timestamp"":53931.80000001192},{""type"":""chart_hover"",""data"":{""x"":1228,""y"":328,""timestamp"":53941.39999997616},""timestamp"":53941.39999997616},{""type"":""chart_hover"",""data"":{""x"":1228,""y"":327,""timestamp"":53948.69999998808},""timestamp"":53948.69999998808},{""type"":""chart_hover"",""data"":{""x"":1228,""y"":326,""timestamp"":53956.69999998808},""timestamp"":53956.69999998808},{""type"":""chart_hover"",""data"":{""x"":1228,""y"":325,""timestamp"":54002.69999998808},""timestamp"":54002.69999998808},{""type"":""chart_hover"",""data"":{""x"":1228,""y"":324,""timestamp"":54021.5},""timestamp"":54021.5},{""type"":""chart_hover"",""data"":{""x"":1228,""y"":322,""timestamp"":54031.39999997616},""timestamp"":54031.39999997616},{""type"":""chart_hover"",""data"":{""x"":1228,""y"":321,""timestamp"":54038.89999997616},""timestamp"":54038.89999997616},{""type"":""chart_hover"",""data"":{""x"":1228,""y"":320,""timestamp"":54055.89999997616},""timestamp"":54055.89999997616},{""type"":""chart_hover"",""data"":{""x"":1228,""y"":319,""timestamp"":54062.80000001192},""timestamp"":54062.80000001192},{""type"":""chart_hover"",""data"":{""x"":1228,""y"":317,""timestamp"":54069.5},""timestamp"":54069.5},{""type"":""chart_hover"",""data"":{""x"":1228,""y"":316,""timestamp"":54076.69999998808},""timestamp"":54076.69999998808},{""type"":""chart_hover"",""data"":{""x"":1228,""y"":314,""timestamp"":54083.80000001192},""timestamp"":54083.80000001192},{""type"":""chart_hover"",""data"":{""x"":1228,""y"":313,""timestamp"":54091.5},""timestamp"":54091.5},{""type"":""chart_hover"",""data"":{""x"":1228,""y"":312,""timestamp"":54111.30000001192},""timestamp"":54111.30000001192},{""type"":""chart_hover"",""data"":{""x"":1228,""y"":310,""timestamp"":54119.39999997616},""timestamp"":54119.39999997616},{""type"":""chart_hover"",""data"":{""x"":1228,""y"":309,""timestamp"":54128.89999997616},""timestamp"":54128.89999997616},{""type"":""chart_hover"",""data"":{""x"":1228,""y"":307,""timestamp"":54136.19999998808},""timestamp"":54136.19999998808},{""type"":""chart_hover"",""data"":{""x"":1228,""y"":306,""timestamp"":54153},""timestamp"":54153},{""type"":""chart_hover"",""data"":{""x"":1228,""y"":304,""timestamp"":54173.80000001192},""timestamp"":54173.80000001192},{""type"":""chart_hover"",""data"":{""x"":1228,""y"":303,""timestamp"":54212.30000001192},""timestamp"":54212.30000001192},{""type"":""chart_hover"",""data"":{""x"":1228,""y"":302,""timestamp"":55562.69999998808},""timestamp"":55562.69999998808},{""type"":""chart_hover"",""data"":{""x"":1228,""y"":299,""timestamp"":55582.69999998808},""timestamp"":55582.69999998808},{""type"":""chart_hover"",""data"":{""x"":1227,""y"":296,""timestamp"":55589.60000002384},""timestamp"":55589.60000002384},{""type"":""chart_hover"",""data"":{""x"":1227,""y"":294,""timestamp"":55596.5},""timestamp"":55596.60000002384},{""type"":""chart_hover"",""data"":{""x"":1226,""y"":291,""timestamp"":55603.80000001192},""timestamp"":55603.89999997616},{""type"":""chart_hover"",""data"":{""x"":1225,""y"":291,""timestamp"":55610.80000001192},""timestamp"":55610.80000001192},{""type"":""chart_hover"",""data"":{""x"":1225,""y"":290,""timestamp"":55617.30000001192},""timestamp"":55617.30000001192},{""type"":""chart_hover"",""data"":{""x"":1225,""y"":288,""timestamp"":55629.5},""timestamp"":55629.5},{""type"":""chart_hover"",""data"":{""x"":1224,""y"":288,""timestamp"":55636.80000001192},""timestamp"":55636.80000001192},{""type"":""chart_hover"",""data"":{""x"":1224,""y"":287,""timestamp"":55644.19999998808},""timestamp"":55644.19999998808},{""type"":""chart_hover"",""data"":{""x"":1224,""y"":286,""timestamp"":55666.10000002384},""timestamp"":55666.10000002384},{""type"":""chart_hover"",""data"":{""x"":1223,""y"":285,""timestamp"":55697.69999998808},""timestamp"":55697.69999998808},{""type"":""chart_hover"",""data"":{""x"":1222,""y"":285,""timestamp"":56350.19999998808},""timestamp"":56350.19999998808},{""type"":""chart_hover"",""data"":{""x"":1219,""y"":285,""timestamp"":56370.19999998808},""timestamp"":56370.19999998808},{""type"":""chart_hover"",""data"":{""x"":1217,""y"":285,""timestamp"":56377.10000002384},""timestamp"":56377.10000002384},{""type"":""chart_hover"",""data"":{""x"":1213,""y"":285,""timestamp"":56384},""timestamp"":56384},{""type"":""chart_hover"",""data"":{""x"":1212,""y"":285,""timestamp"":56391.10000002384},""timestamp"":56391.10000002384},{""type"":""chart_hover"",""data"":{""x"":1206,""y"":285,""timestamp"":56398.10000002384},""timestamp"":56398.10000002384},{""type"":""chart_hover"",""data"":{""x"":1199,""y"":285,""timestamp"":56405},""timestamp"":56405},{""type"":""chart_hover"",""data"":{""x"":1195,""y"":285,""timestamp"":56411.89999997616},""timestamp"":56411.89999997616},{""type"":""chart_hover"",""data"":{""x"":1184,""y"":285,""timestamp"":56418.80000001192},""timestamp"":56418.89999997616},{""type"":""chart_hover"",""data"":{""x"":1175,""y"":285,""timestamp"":56425.80000001192},""timestamp"":56425.80000001192},{""type"":""chart_hover"",""data"":{""x"":1168,""y"":285,""timestamp"":56432.30000001192},""timestamp"":56432.30000001192},{""type"":""chart_hover"",""data"":{""x"":1165,""y"":285,""timestamp"":56439.30000001192},""timestamp"":56439.30000001192},{""type"":""chart_hover"",""data"":{""x"":1156,""y"":285,""timestamp"":56446.60000002384},""timestamp"":56446.69999998808},{""type"":""chart_hover"",""data"":{""x"":1150,""y"":285,""timestamp"":56454},""timestamp"":56454},{""type"":""chart_hover"",""data"":{""x"":1145,""y"":285,""timestamp"":56462.30000001192},""timestamp"":56462.30000001192},{""type"":""chart_hover"",""data"":{""x"":1139,""y"":285,""timestamp"":56469},""timestamp"":56469},{""type"":""chart_hover"",""data"":{""x"":1134,""y"":285,""timestamp"":56476.69999998808},""timestamp"":56476.69999998808},{""type"":""chart_hover"",""data"":{""x"":1126,""y"":285,""timestamp"":56483.60000002384},""timestamp"":56483.60000002384},{""type"":""chart_hover"",""data"":{""x"":1125,""y"":285,""timestamp"":56490.69999998808},""timestamp"":56490.69999998808},{""type"":""chart_hover"",""data"":{""x"":1120,""y"":285,""timestamp"":56498.19999998808},""timestamp"":56498.19999998808},{""type"":""chart_hover"",""data"":{""x"":1115,""y"":285,""timestamp"":56504.39999997616},""timestamp"":56504.39999997616},{""type"":""chart_hover"",""data"":{""x"":1113,""y"":285,""timestamp"":56514},""timestamp"":56514},{""type"":""chart_hover"",""data"":{""x"":1109,""y"":285,""timestamp"":56518.30000001192},""timestamp"":56518.30000001192},{""type"":""chart_hover"",""data"":{""x"":1105,""y"":285,""timestamp"":56526.60000002384},""timestamp"":56526.60000002384},{""type"":""chart_hover"",""data"":{""x"":1101,""y"":285,""timestamp"":56533.80000001192},""timestamp"":56533.80000001192},{""type"":""chart_hover"",""data"":{""x"":1099,""y"":285,""timestamp"":56540.89999997616},""timestamp"":56540.89999997616},{""type"":""chart_hover"",""data"":{""x"":1095,""y"":285,""timestamp"":56557.39999997616},""timestamp"":56557.39999997616},{""type"":""chart_hover"",""data"":{""x"":1091,""y"":285,""timestamp"":56564.19999998808},""timestamp"":56564.19999998808},{""type"":""chart_hover"",""data"":{""x"":1087,""y"":285,""timestamp"":56571.39999997616},""timestamp"":56571.39999997616},{""type"":""chart_hover"",""data"":{""x"":1085,""y"":285,""timestamp"":56578.39999997616},""timestamp"":56578.39999997616},{""type"":""chart_hover"",""data"":{""x"":1081,""y"":285,""timestamp"":56585.30000001192},""timestamp"":56585.30000001192},{""type"":""chart_hover"",""data"":{""x"":1076,""y"":285,""timestamp"":56592.19999998808},""timestamp"":56592.19999998808},{""type"":""chart_hover"",""data"":{""x"":1074,""y"":285,""timestamp"":56599.30000001192},""timestamp"":56599.30000001192},{""type"":""chart_hover"",""data"":{""x"":1072,""y"":285,""timestamp"":56606.19999998808},""timestamp"":56606.19999998808},{""type"":""chart_hover"",""data"":{""x"":1067,""y"":285,""timestamp"":56612.89999997616},""timestamp"":56612.89999997616},{""type"":""chart_hover"",""data"":{""x"":1064,""y"":285,""timestamp"":56619.80000001192},""timestamp"":56619.80000001192},{""type"":""chart_hover"",""data"":{""x"":1057,""y"":285,""timestamp"":56626.80000001192},""timestamp"":56626.80000001192},{""type"":""chart_hover"",""data"":{""x"":1055,""y"":285,""timestamp"":56633.89999997616},""timestamp"":56633.89999997616},{""type"":""chart_hover"",""data"":{""x"":1049,""y"":285,""timestamp"":56641.5},""timestamp"":56641.5},{""type"":""chart_hover"",""data"":{""x"":1044,""y"":285,""timestamp"":56649.10000002384},""timestamp"":56649.10000002384},{""type"":""chart_hover"",""data"":{""x"":1042,""y"":285,""timestamp"":56657.69999998808},""timestamp"":56657.69999998808},{""type"":""chart_hover"",""data"":{""x"":1039,""y"":285,""timestamp"":56664.19999998808},""timestamp"":56664.19999998808},{""type"":""chart_hover"",""data"":{""x"":1037,""y"":285,""timestamp"":56671.60000002384},""timestamp"":56671.60000002384},{""type"":""chart_hover"",""data"":{""x"":1032,""y"":284,""timestamp"":56678.80000001192},""timestamp"":56678.80000001192},{""type"":""chart_hover"",""data"":{""x"":1030,""y"":284,""timestamp"":56684.30000001192},""timestamp"":56684.30000001192},{""type"":""chart_hover"",""data"":{""x"":1025,""y"":283,""timestamp"":56690.89999997616},""timestamp"":56690.89999997616},{""type"":""chart_hover"",""data"":{""x"":1023,""y"":283,""timestamp"":56698.30000001192},""timestamp"":56698.30000001192},{""type"":""chart_hover"",""data"":{""x"":1021,""y"":282,""timestamp"":56705.89999997616},""timestamp"":56705.89999997616},{""type"":""chart_hover"",""data"":{""x"":1020,""y"":281,""timestamp"":56714.30000001192},""timestamp"":56714.30000001192},{""type"":""chart_hover"",""data"":{""x"":1016,""y"":280,""timestamp"":56721.10000002384},""timestamp"":56721.10000002384},{""type"":""chart_hover"",""data"":{""x"":1011,""y"":280,""timestamp"":56777.19999998808},""timestamp"":56777.19999998808},{""type"":""chart_hover"",""data"":{""x"":1010,""y"":279,""timestamp"":56784.69999998808},""timestamp"":56784.69999998808},{""type"":""chart_hover"",""data"":{""x"":993,""y"":276,""timestamp"":56791.19999998808},""timestamp"":56791.19999998808},{""type"":""chart_hover"",""data"":{""x"":990,""y"":275,""timestamp"":56798.89999997616},""timestamp"":56798.89999997616},{""type"":""chart_hover"",""data"":{""x"":989,""y"":275,""timestamp"":56807.10000002384},""timestamp"":56807.10000002384},{""type"":""chart_hover"",""data"":{""x"":988,""y"":275,""timestamp"":56814.10000002384},""timestamp"":56814.10000002384},{""type"":""chart_hover"",""data"":{""x"":986,""y"":275,""timestamp"":56821.89999997616},""timestamp"":56821.89999997616},{""type"":""chart_hover"",""data"":{""x"":985,""y"":275,""timestamp"":56828.10000002384},""timestamp"":56828.19999998808},{""type"":""chart_hover"",""data"":{""x"":984,""y"":274,""timestamp"":56835},""timestamp"":56835},{""type"":""chart_hover"",""data"":{""x"":983,""y"":274,""timestamp"":56842.89999997616},""timestamp"":56842.89999997616},{""type"":""chart_hover"",""data"":{""x"":981,""y"":274,""timestamp"":56849.19999998808},""timestamp"":56849.19999998808},{""type"":""chart_hover"",""data"":{""x"":980,""y"":274,""timestamp"":56869.89999997616},""timestamp"":56869.89999997616},{""type"":""chart_hover"",""data"":{""x"":979,""y"":274,""timestamp"":56877},""timestamp"":56877},{""type"":""chart_hover"",""data"":{""x"":978,""y"":274,""timestamp"":56889.10000002384},""timestamp"":56889.10000002384},{""type"":""chart_hover"",""data"":{""x"":979,""y"":274,""timestamp"":57045.60000002384},""timestamp"":57045.60000002384},{""type"":""chart_hover"",""data"":{""x"":980,""y"":274,""timestamp"":57107.69999998808},""timestamp"":57107.69999998808},{""type"":""chart_hover"",""data"":{""x"":981,""y"":274,""timestamp"":57144.69999998808},""timestamp"":57144.69999998808},{""type"":""chart_hover"",""data"":{""x"":982,""y"":274,""timestamp"":57167.69999998808},""timestamp"":57167.80000001192},{""type"":""chart_hover"",""data"":{""x"":983,""y"":274,""timestamp"":57190.30000001192},""timestamp"":57190.30000001192},{""type"":""chart_hover"",""data"":{""x"":984,""y"":275,""timestamp"":57197.5},""timestamp"":57197.5},{""type"":""chart_hover"",""data"":{""x"":985,""y"":275,""timestamp"":57214.89999997616},""timestamp"":57214.89999997616},{""type"":""chart_hover"",""data"":{""x"":986,""y"":276,""timestamp"":57227.30000001192},""timestamp"":57227.30000001192},{""type"":""chart_hover"",""data"":{""x"":987,""y"":276,""timestamp"":57242.39999997616},""timestamp"":57242.39999997616},{""type"":""chart_hover"",""data"":{""x"":988,""y"":276,""timestamp"":57249.30000001192},""timestamp"":57249.30000001192},{""type"":""chart_hover"",""data"":{""x"":989,""y"":276,""timestamp"":57270},""timestamp"":57270.10000002384},{""type"":""chart_hover"",""data"":{""x"":990,""y"":276,""timestamp"":57279.19999998808},""timestamp"":57279.19999998808},{""type"":""chart_hover"",""data"":{""x"":991,""y"":276,""timestamp"":57331.80000001192},""timestamp"":57331.80000001192},{""type"":""chart_hover"",""data"":{""x"":991,""y"":277,""timestamp"":58570.10000002384},""timestamp"":58570.10000002384},{""type"":""chart_hover"",""data"":{""x"":991,""y"":278,""timestamp"":58576.30000001192},""timestamp"":58576.30000001192},{""type"":""chart_hover"",""data"":{""x"":988,""y"":285,""timestamp"":58584.30000001192},""timestamp"":58584.30000001192},{""type"":""chart_hover"",""data"":{""x"":985,""y"":293,""timestamp"":58592.10000002384},""timestamp"":58592.10000002384},{""type"":""chart_hover"",""data"":{""x"":981,""y"":301,""timestamp"":58598.89999997616},""timestamp"":58598.89999997616},{""type"":""chart_hover"",""data"":{""x"":980,""y"":303,""timestamp"":58607.10000002384},""timestamp"":58607.10000002384},{""type"":""chart_hover"",""data"":{""x"":975,""y"":313,""timestamp"":58614.19999998808},""timestamp"":58614.19999998808},{""type"":""chart_hover"",""data"":{""x"":968,""y"":324,""timestamp"":58622},""timestamp"":58622},{""type"":""chart_hover"",""data"":{""x"":958,""y"":339,""timestamp"":58628.89999997616},""timestamp"":58628.89999997616},{""type"":""chart_hover"",""data"":{""x"":949,""y"":353,""timestamp"":58636.80000001192},""timestamp"":58636.80000001192},{""type"":""chart_hover"",""data"":{""x"":939,""y"":369,""timestamp"":58643.69999998808},""timestamp"":58643.80000001192},{""type"":""chart_hover"",""data"":{""x"":915,""y"":402,""timestamp"":58651.60000002384},""timestamp"":58651.60000002384},{""type"":""chart_hover"",""data"":{""x"":897,""y"":427,""timestamp"":58659},""timestamp"":58659.10000002384},{""type"":""chart_hover"",""data"":{""x"":893,""y"":433,""timestamp"":58666.39999997616},""timestamp"":58666.39999997616},{""type"":""chart_hover"",""data"":{""x"":875,""y"":458,""timestamp"":58673.19999998808},""timestamp"":58673.19999998808},{""type"":""chart_hover"",""data"":{""x"":854,""y"":486,""timestamp"":58681.10000002384},""timestamp"":58681.10000002384},{""type"":""chart_hover"",""data"":{""x"":830,""y"":519,""timestamp"":58688.19999998808},""timestamp"":58688.19999998808},{""type"":""chart_hover"",""data"":{""x"":793,""y"":571,""timestamp"":58707.30000001192},""timestamp"":58707.30000001192},{""type"":""chart_hover"",""data"":{""x"":780,""y"":590,""timestamp"":58714},""timestamp"":58714},{""type"":""chart_hover"",""data"":{""x"":775,""y"":597,""timestamp"":58721},""timestamp"":58721},{""type"":""chart_leave"",""data"":{""timestamp"":58727.89999997616},""timestamp"":58728},{""type"":""chart_enter"",""data"":{""timestamp"":60096.19999998808},""timestamp"":60096.19999998808},{""type"":""chart_hover"",""data"":{""x"":691,""y"":562,""timestamp"":60096.19999998808},""timestamp"":60096.19999998808},{""type"":""chart_hover"",""data"":{""x"":770,""y"":453,""timestamp"":60117.39999997616},""timestamp"":60117.39999997616},{""type"":""chart_hover"",""data"":{""x"":799,""y"":417,""timestamp"":60124.19999998808},""timestamp"":60124.19999998808},{""type"":""chart_hover"",""data"":{""x"":809,""y"":403,""timestamp"":60131.30000001192},""timestamp"":60131.30000001192},{""type"":""chart_hover"",""data"":{""x"":828,""y"":383,""timestamp"":60138.10000002384},""timestamp"":60138.10000002384},{""type"":""chart_hover"",""data"":{""x"":845,""y"":360,""timestamp"":60144.89999997616},""timestamp"":60144.89999997616},{""type"":""chart_hover"",""data"":{""x"":860,""y"":343,""timestamp"":60151.69999998808},""timestamp"":60151.69999998808},{""type"":""chart_hover"",""data"":{""x"":867,""y"":334,""timestamp"":60158.80000001192},""timestamp"":60158.80000001192},{""type"":""chart_hover"",""data"":{""x"":876,""y"":324,""timestamp"":60165.80000001192},""timestamp"":60165.80000001192},{""type"":""chart_hover"",""data"":{""x"":882,""y"":318,""timestamp"":60172.60000002384},""timestamp"":60172.60000002384},{""type"":""chart_hover"",""data"":{""x"":883,""y"":317,""timestamp"":60188.39999997616},""timestamp"":60188.39999997616},{""type"":""chart_hover"",""data"":{""x"":888,""y"":311,""timestamp"":60194.5},""timestamp"":60194.5},{""type"":""chart_hover"",""data"":{""x"":893,""y"":305,""timestamp"":60201.10000002384},""timestamp"":60201.19999998808},{""type"":""chart_hover"",""data"":{""x"":895,""y"":303,""timestamp"":60207.69999998808},""timestamp"":60207.69999998808},{""type"":""chart_hover"",""data"":{""x"":900,""y"":297,""timestamp"":60214.5},""timestamp"":60214.5},{""type"":""chart_hover"",""data"":{""x"":905,""y"":293,""timestamp"":60221.5},""timestamp"":60221.5},{""type"":""chart_hover"",""data"":{""x"":907,""y"":289,""timestamp"":60228.5},""timestamp"":60228.5},{""type"":""chart_hover"",""data"":{""x"":910,""y"":288,""timestamp"":60235.39999997616},""timestamp"":60235.39999997616},{""type"":""chart_hover"",""data"":{""x"":913,""y"":284,""timestamp"":60247.19999998808},""timestamp"":60247.19999998808},{""type"":""chart_hover"",""data"":{""x"":915,""y"":283,""timestamp"":60255.80000001192},""timestamp"":60255.80000001192},{""type"":""chart_hover"",""data"":{""x"":916,""y"":282,""timestamp"":60262.80000001192},""timestamp"":60262.80000001192},{""type"":""chart_hover"",""data"":{""x"":918,""y"":281,""timestamp"":60270},""timestamp"":60270},{""type"":""chart_hover"",""data"":{""x"":919,""y"":280,""timestamp"":60276.60000002384},""timestamp"":60276.60000002384},{""type"":""chart_hover"",""data"":{""x"":920,""y"":280,""timestamp"":60290.69999998808},""timestamp"":60290.69999998808},{""type"":""chart_hover"",""data"":{""x"":920,""y"":279,""timestamp"":60298},""timestamp"":60298},{""type"":""chart_hover"",""data"":{""x"":921,""y"":279,""timestamp"":60304.60000002384},""timestamp"":60304.60000002384},{""type"":""chart_hover"",""data"":{""x"":923,""y"":278,""timestamp"":60617.89999997616},""timestamp"":60617.89999997616},{""type"":""chart_hover"",""data"":{""x"":924,""y"":278,""timestamp"":60624.5},""timestamp"":60624.5},{""type"":""chart_hover"",""data"":{""x"":928,""y"":276,""timestamp"":60632.30000001192},""timestamp"":60632.30000001192},{""type"":""chart_hover"",""data"":{""x"":933,""y"":274,""timestamp"":60639.69999998808},""timestamp"":60639.69999998808},{""type"":""chart_hover"",""data"":{""x"":939,""y"":271,""timestamp"":60646.89999997616},""timestamp"":60646.89999997616},{""type"":""chart_hover"",""data"":{""x"":945,""y"":268,""timestamp"":60654.39999997616},""timestamp"":60654.39999997616},{""type"":""chart_hover"",""data"":{""x"":952,""y"":265,""timestamp"":60661.89999997616},""timestamp"":60661.89999997616},{""type"":""chart_hover"",""data"":{""x"":959,""y"":262,""timestamp"":60668.89999997616},""timestamp"":60668.89999997616},{""type"":""chart_hover"",""data"":{""x"":961,""y"":262,""timestamp"":60676.5},""timestamp"":60676.5},{""type"":""chart_hover"",""data"":{""x"":965,""y"":260,""timestamp"":60684.80000001192},""timestamp"":60684.80000001192},{""type"":""chart_hover"",""data"":{""x"":971,""y"":258,""timestamp"":60691.80000001192},""timestamp"":60691.80000001192},{""type"":""chart_hover"",""data"":{""x"":974,""y"":257,""timestamp"":60699.30000001192},""timestamp"":60699.30000001192},{""type"":""chart_hover"",""data"":{""x"":977,""y"":256,""timestamp"":60706.89999997616},""timestamp"":60706.89999997616},{""type"":""chart_hover"",""data"":{""x"":980,""y"":255,""timestamp"":60714.10000002384},""timestamp"":60714.10000002384},{""type"":""chart_hover"",""data"":{""x"":982,""y"":254,""timestamp"":60722.10000002384},""timestamp"":60722.10000002384},{""type"":""chart_hover"",""data"":{""x"":984,""y"":254,""timestamp"":60729},""timestamp"":60729},{""type"":""chart_hover"",""data"":{""x"":985,""y"":252,""timestamp"":60775.60000002384},""timestamp"":60775.60000002384},{""type"":""chart_hover"",""data"":{""x"":986,""y"":252,""timestamp"":60784.10000002384},""timestamp"":60784.10000002384},{""type"":""chart_hover"",""data"":{""x"":986,""y"":253,""timestamp"":60938.39999997616},""timestamp"":60938.39999997616},{""type"":""chart_hover"",""data"":{""x"":986,""y"":254,""timestamp"":60946.10000002384},""timestamp"":60946.10000002384},{""type"":""chart_hover"",""data"":{""x"":986,""y"":255,""timestamp"":60953.69999998808},""timestamp"":60953.69999998808},{""type"":""chart_hover"",""data"":{""x"":986,""y"":256,""timestamp"":60961.69999998808},""timestamp"":60961.69999998808},{""type"":""chart_hover"",""data"":{""x"":986,""y"":258,""timestamp"":60968.80000001192},""timestamp"":60968.80000001192},{""type"":""chart_hover"",""data"":{""x"":986,""y"":259,""timestamp"":60975.60000002384},""timestamp"":60975.60000002384},{""type"":""chart_hover"",""data"":{""x"":986,""y"":261,""timestamp"":60982.5},""timestamp"":60982.5},{""type"":""chart_hover"",""data"":{""x"":986,""y"":262,""timestamp"":60989.30000001192},""timestamp"":60989.30000001192},{""type"":""chart_hover"",""data"":{""x"":986,""y"":263,""timestamp"":60996.69999998808},""timestamp"":60996.69999998808},{""type"":""chart_hover"",""data"":{""x"":986,""y"":264,""timestamp"":61005.30000001192},""timestamp"":61005.30000001192},{""type"":""chart_hover"",""data"":{""x"":986,""y"":266,""timestamp"":61023.69999998808},""timestamp"":61023.69999998808},{""type"":""chart_hover"",""data"":{""x"":986,""y"":267,""timestamp"":61030.89999997616},""timestamp"":61030.89999997616},{""type"":""chart_hover"",""data"":{""x"":986,""y"":268,""timestamp"":61038.80000001192},""timestamp"":61038.80000001192},{""type"":""chart_hover"",""data"":{""x"":986,""y"":269,""timestamp"":61044.60000002384},""timestamp"":61044.60000002384},{""type"":""chart_hover"",""data"":{""x"":986,""y"":270,""timestamp"":61056.10000002384},""timestamp"":61056.10000002384},{""type"":""chart_hover"",""data"":{""x"":986,""y"":271,""timestamp"":61072.5},""timestamp"":61072.5},{""type"":""chart_hover"",""data"":{""x"":986,""y"":272,""timestamp"":61081.89999997616},""timestamp"":61081.89999997616},{""type"":""chart_hover"",""data"":{""x"":986,""y"":273,""timestamp"":61135.10000002384},""timestamp"":61135.10000002384},{""type"":""chart_hover"",""data"":{""x"":986,""y"":274,""timestamp"":61157.5},""timestamp"":61157.5},{""type"":""chart_hover"",""data"":{""x"":986,""y"":275,""timestamp"":61177.5},""timestamp"":61177.5},{""type"":""chart_hover"",""data"":{""x"":989,""y"":276,""timestamp"":61773.39999997616},""timestamp"":61773.39999997616},{""type"":""chart_hover"",""data"":{""x"":991,""y"":277,""timestamp"":61780},""timestamp"":61780},{""type"":""chart_hover"",""data"":{""x"":993,""y"":278,""timestamp"":61786.69999998808},""timestamp"":61786.69999998808},{""type"":""chart_hover"",""data"":{""x"":995,""y"":278,""timestamp"":61807.10000002384},""timestamp"":61807.19999998808},{""type"":""chart_hover"",""data"":{""x"":996,""y"":278,""timestamp"":61816.69999998808},""timestamp"":61816.69999998808},{""type"":""chart_hover"",""data"":{""x"":997,""y"":278,""timestamp"":62095},""timestamp"":62095},{""type"":""chart_hover"",""data"":{""x"":998,""y"":278,""timestamp"":62125},""timestamp"":62125},{""type"":""chart_hover"",""data"":{""x"":999,""y"":278,""timestamp"":62142.89999997616},""timestamp"":62142.89999997616},{""type"":""chart_hover"",""data"":{""x"":1000,""y"":278,""timestamp"":62149.89999997616},""timestamp"":62149.89999997616},{""type"":""chart_hover"",""data"":{""x"":1001,""y"":278,""timestamp"":62162},""timestamp"":62162},{""type"":""chart_hover"",""data"":{""x"":1002,""y"":278,""timestamp"":62176.80000001192},""timestamp"":62176.80000001192},{""type"":""chart_hover"",""data"":{""x"":1003,""y"":278,""timestamp"":62189.5},""timestamp"":62189.5},{""type"":""chart_hover"",""data"":{""x"":1004,""y"":278,""timestamp"":62196.5},""timestamp"":62196.5},{""type"":""chart_hover"",""data"":{""x"":1005,""y"":278,""timestamp"":62222.30000001192},""timestamp"":62222.30000001192},{""type"":""chart_hover"",""data"":{""x"":1006,""y"":278,""timestamp"":62275},""timestamp"":62275},{""type"":""chart_hover"",""data"":{""x"":1007,""y"":278,""timestamp"":62312.69999998808},""timestamp"":62312.69999998808},{""type"":""chart_hover"",""data"":{""x"":1008,""y"":278,""timestamp"":62330.30000001192},""timestamp"":62330.30000001192},{""type"":""chart_hover"",""data"":{""x"":1009,""y"":278,""timestamp"":62350.80000001192},""timestamp"":62350.80000001192},{""type"":""chart_hover"",""data"":{""x"":1010,""y"":278,""timestamp"":62378.89999997616},""timestamp"":62378.89999997616},{""type"":""chart_hover"",""data"":{""x"":1011,""y"":278,""timestamp"":62417.19999998808},""timestamp"":62417.19999998808},{""type"":""chart_hover"",""data"":{""x"":1012,""y"":278,""timestamp"":62423.89999997616},""timestamp"":62423.89999997616},{""type"":""chart_hover"",""data"":{""x"":1013,""y"":278,""timestamp"":62455.5},""timestamp"":62455.5},{""type"":""chart_hover"",""data"":{""x"":1014,""y"":278,""timestamp"":62461.60000002384},""timestamp"":62461.60000002384},{""type"":""chart_hover"",""data"":{""x"":1015,""y"":278,""timestamp"":62482.69999998808},""timestamp"":62482.80000001192},{""type"":""chart_hover"",""data"":{""x"":1016,""y"":278,""timestamp"":62490.10000002384},""timestamp"":62490.10000002384},{""type"":""chart_hover"",""data"":{""x"":1017,""y"":278,""timestamp"":62496.80000001192},""timestamp"":62496.80000001192},{""type"":""chart_hover"",""data"":{""x"":1020,""y"":278,""timestamp"":62504.60000002384},""timestamp"":62504.60000002384},{""type"":""chart_hover"",""data"":{""x"":1021,""y"":278,""timestamp"":62510.80000001192},""timestamp"":62510.80000001192},{""type"":""chart_hover"",""data"":{""x"":1024,""y"":278,""timestamp"":62517.60000002384},""timestamp"":62517.60000002384},{""type"":""chart_hover"",""data"":{""x"":1026,""y"":278,""timestamp"":62524.60000002384},""timestamp"":62524.60000002384},{""type"":""chart_hover"",""data"":{""x"":1028,""y"":279,""timestamp"":62531.60000002384},""timestamp"":62531.60000002384},{""type"":""chart_hover"",""data"":{""x"":1030,""y"":279,""timestamp"":62538.5},""timestamp"":62538.5},{""type"":""chart_hover"",""data"":{""x"":1035,""y"":279,""timestamp"":62545.30000001192},""timestamp"":62545.30000001192},{""type"":""chart_hover"",""data"":{""x"":1038,""y"":279,""timestamp"":62551.89999997616},""timestamp"":62551.89999997616},{""type"":""chart_hover"",""data"":{""x"":1041,""y"":279,""timestamp"":62558.69999998808},""timestamp"":62558.69999998808},{""type"":""chart_hover"",""data"":{""x"":1045,""y"":279,""timestamp"":62566},""timestamp"":62566},{""type"":""chart_hover"",""data"":{""x"":1047,""y"":279,""timestamp"":62573.19999998808},""timestamp"":62573.19999998808},{""type"":""chart_hover"",""data"":{""x"":1048,""y"":279,""timestamp"":62581.5},""timestamp"":62581.5},{""type"":""chart_hover"",""data"":{""x"":1049,""y"":279,""timestamp"":62589.30000001192},""timestamp"":62589.30000001192},{""type"":""chart_hover"",""data"":{""x"":1052,""y"":279,""timestamp"":62597.5},""timestamp"":62597.5},{""type"":""chart_hover"",""data"":{""x"":1053,""y"":279,""timestamp"":62604.10000002384},""timestamp"":62604.10000002384},{""type"":""chart_hover"",""data"":{""x"":1054,""y"":279,""timestamp"":62611.60000002384},""timestamp"":62611.60000002384},{""type"":""chart_hover"",""data"":{""x"":1056,""y"":279,""timestamp"":62618.5},""timestamp"":62618.60000002384},{""type"":""chart_hover"",""data"":{""x"":1057,""y"":279,""timestamp"":62625.69999998808},""timestamp"":62625.69999998808},{""type"":""chart_hover"",""data"":{""x"":1059,""y"":279,""timestamp"":62642},""timestamp"":62642},{""type"":""chart_hover"",""data"":{""x"":1060,""y"":279,""timestamp"":62654.39999997616},""timestamp"":62654.39999997616},{""type"":""chart_hover"",""data"":{""x"":1061,""y"":279,""timestamp"":62661},""timestamp"":62661},{""type"":""chart_hover"",""data"":{""x"":1062,""y"":279,""timestamp"":62676.19999998808},""timestamp"":62676.19999998808},{""type"":""chart_hover"",""data"":{""x"":1063,""y"":279,""timestamp"":62686.39999997616},""timestamp"":62686.39999997616},{""type"":""chart_hover"",""data"":{""x"":1064,""y"":279,""timestamp"":62705.10000002384},""timestamp"":62705.10000002384},{""type"":""chart_hover"",""data"":{""x"":1065,""y"":279,""timestamp"":62712.10000002384},""timestamp"":62712.10000002384},{""type"":""chart_hover"",""data"":{""x"":1067,""y"":279,""timestamp"":62724.39999997616},""timestamp"":62724.39999997616},{""type"":""chart_hover"",""data"":{""x"":1068,""y"":279,""timestamp"":62778.5},""timestamp"":62778.5},{""type"":""chart_hover"",""data"":{""x"":1071,""y"":279,""timestamp"":62784.80000001192},""timestamp"":62784.80000001192},{""type"":""chart_hover"",""data"":{""x"":1082,""y"":279,""timestamp"":62792.39999997616},""timestamp"":62792.39999997616},{""type"":""chart_hover"",""data"":{""x"":1083,""y"":279,""timestamp"":62798.80000001192},""timestamp"":62798.80000001192},{""type"":""chart_hover"",""data"":{""x"":1085,""y"":279,""timestamp"":62806.89999997616},""timestamp"":62806.89999997616},{""type"":""chart_hover"",""data"":{""x"":1088,""y"":278,""timestamp"":62814.39999997616},""timestamp"":62814.39999997616},{""type"":""chart_hover"",""data"":{""x"":1089,""y"":278,""timestamp"":62821.69999998808},""timestamp"":62821.69999998808},{""type"":""chart_hover"",""data"":{""x"":1090,""y"":278,""timestamp"":62829.19999998808},""timestamp"":62829.19999998808},{""type"":""chart_hover"",""data"":{""x"":1091,""y"":278,""timestamp"":62850.60000002384},""timestamp"":62850.60000002384},{""type"":""chart_hover"",""data"":{""x"":1092,""y"":278,""timestamp"":62857.5},""timestamp"":62857.5},{""type"":""chart_hover"",""data"":{""x"":1093,""y"":277,""timestamp"":62864.5},""timestamp"":62864.5},{""type"":""chart_hover"",""data"":{""x"":1094,""y"":277,""timestamp"":62889.10000002384},""timestamp"":62889.19999998808},{""type"":""chart_hover"",""data"":{""x"":1094,""y"":276,""timestamp"":62905.19999998808},""timestamp"":62905.19999998808},{""type"":""chart_hover"",""data"":{""x"":1095,""y"":276,""timestamp"":62912.19999998808},""timestamp"":62912.19999998808},{""type"":""chart_hover"",""data"":{""x"":1096,""y"":275,""timestamp"":62924.10000002384},""timestamp"":62924.10000002384},{""type"":""chart_hover"",""data"":{""x"":1097,""y"":275,""timestamp"":62940},""timestamp"":62940},{""type"":""chart_hover"",""data"":{""x"":1098,""y"":275,""timestamp"":62961.80000001192},""timestamp"":62961.80000001192},{""type"":""chart_hover"",""data"":{""x"":1098,""y"":274,""timestamp"":62968.69999998808},""timestamp"":62968.69999998808},{""type"":""chart_hover"",""data"":{""x"":1099,""y"":274,""timestamp"":62975.60000002384},""timestamp"":62975.60000002384},{""type"":""chart_hover"",""data"":{""x"":1100,""y"":273,""timestamp"":62986.5},""timestamp"":62986.5},{""type"":""chart_hover"",""data"":{""x"":1101,""y"":273,""timestamp"":62993.80000001192},""timestamp"":62993.80000001192},{""type"":""chart_hover"",""data"":{""x"":1102,""y"":273,""timestamp"":63010},""timestamp"":63010},{""type"":""chart_hover"",""data"":{""x"":1103,""y"":272,""timestamp"":63021.5},""timestamp"":63021.5},{""type"":""chart_hover"",""data"":{""x"":1104,""y"":272,""timestamp"":63044.60000002384},""timestamp"":63044.60000002384},{""type"":""chart_hover"",""data"":{""x"":1105,""y"":272,""timestamp"":63054.19999998808},""timestamp"":63054.19999998808},{""type"":""chart_hover"",""data"":{""x"":1105,""y"":271,""timestamp"":63061.89999997616},""timestamp"":63062},{""type"":""chart_hover"",""data"":{""x"":1106,""y"":271,""timestamp"":63069},""timestamp"":63069},{""type"":""chart_hover"",""data"":{""x"":1107,""y"":271,""timestamp"":63076.39999997616},""timestamp"":63076.39999997616},{""type"":""chart_hover"",""data"":{""x"":1108,""y"":271,""timestamp"":63099.80000001192},""timestamp"":63099.80000001192},{""type"":""chart_hover"",""data"":{""x"":1109,""y"":271,""timestamp"":63108.89999997616},""timestamp"":63108.89999997616},{""type"":""chart_hover"",""data"":{""x"":1110,""y"":270,""timestamp"":63128.19999998808},""timestamp"":63128.19999998808},{""type"":""chart_hover"",""data"":{""x"":1111,""y"":270,""timestamp"":63135.30000001192},""timestamp"":63135.30000001192},{""type"":""chart_hover"",""data"":{""x"":1112,""y"":270,""timestamp"":63142.30000001192},""timestamp"":63142.30000001192},{""type"":""chart_hover"",""data"":{""x"":1113,""y"":270,""timestamp"":63149.30000001192},""timestamp"":63149.30000001192},{""type"":""chart_hover"",""data"":{""x"":1114,""y"":270,""timestamp"":63159.39999997616},""timestamp"":63159.39999997616},{""type"":""chart_hover"",""data"":{""x"":1115,""y"":270,""timestamp"":63166.5},""timestamp"":63166.60000002384},{""type"":""chart_hover"",""data"":{""x"":1116,""y"":270,""timestamp"":63174.10000002384},""timestamp"":63174.10000002384},{""type"":""chart_hover"",""data"":{""x"":1117,""y"":270,""timestamp"":63181.89999997616},""timestamp"":63182},{""type"":""chart_hover"",""data"":{""x"":1118,""y"":270,""timestamp"":63189.19999998808},""timestamp"":63189.19999998808},{""type"":""chart_hover"",""data"":{""x"":1119,""y"":270,""timestamp"":63211.60000002384},""timestamp"":63211.60000002384},{""type"":""chart_hover"",""data"":{""x"":1120,""y"":269,""timestamp"":63232.10000002384},""timestamp"":63232.10000002384},{""type"":""chart_hover"",""data"":{""x"":1121,""y"":269,""timestamp"":63257.10000002384},""timestamp"":63257.10000002384},{""type"":""chart_hover"",""data"":{""x"":1122,""y"":269,""timestamp"":63264.10000002384},""timestamp"":63264.19999998808},{""type"":""chart_hover"",""data"":{""x"":1123,""y"":269,""timestamp"":63287.69999998808},""timestamp"":63287.69999998808},{""type"":""chart_hover"",""data"":{""x"":1124,""y"":269,""timestamp"":63309},""timestamp"":63309},{""type"":""chart_hover"",""data"":{""x"":1124,""y"":268,""timestamp"":63317.39999997616},""timestamp"":63317.39999997616},{""type"":""chart_hover"",""data"":{""x"":1126,""y"":268,""timestamp"":63324.39999997616},""timestamp"":63324.39999997616},{""type"":""chart_hover"",""data"":{""x"":1127,""y"":268,""timestamp"":63343.80000001192},""timestamp"":63343.80000001192},{""type"":""chart_hover"",""data"":{""x"":1128,""y"":268,""timestamp"":63350.69999998808},""timestamp"":63350.69999998808},{""type"":""chart_hover"",""data"":{""x"":1129,""y"":267,""timestamp"":63361.5},""timestamp"":63361.5},{""type"":""chart_hover"",""data"":{""x"":1131,""y"":267,""timestamp"":63369.39999997616},""timestamp"":63369.5},{""type"":""chart_hover"",""data"":{""x"":1132,""y"":267,""timestamp"":63392.5},""timestamp"":63392.5},{""type"":""chart_hover"",""data"":{""x"":1133,""y"":267,""timestamp"":63399.5},""timestamp"":63399.5},{""type"":""chart_hover"",""data"":{""x"":1134,""y"":267,""timestamp"":63406.30000001192},""timestamp"":63406.30000001192},{""type"":""chart_hover"",""data"":{""x"":1135,""y"":267,""timestamp"":63418.5},""timestamp"":63418.5},{""type"":""chart_hover"",""data"":{""x"":1137,""y"":267,""timestamp"":63433},""timestamp"":63433},{""type"":""chart_hover"",""data"":{""x"":1138,""y"":267,""timestamp"":63441},""timestamp"":63441},{""type"":""chart_hover"",""data"":{""x"":1139,""y"":267,""timestamp"":63448.60000002384},""timestamp"":63448.60000002384},{""type"":""chart_hover"",""data"":{""x"":1140,""y"":267,""timestamp"":63455.80000001192},""timestamp"":63455.80000001192},{""type"":""chart_hover"",""data"":{""x"":1141,""y"":267,""timestamp"":63464},""timestamp"":63464},{""type"":""chart_hover"",""data"":{""x"":1142,""y"":267,""timestamp"":63481.69999998808},""timestamp"":63481.69999998808},{""type"":""chart_hover"",""data"":{""x"":1143,""y"":267,""timestamp"":63489.60000002384},""timestamp"":63489.60000002384},{""type"":""chart_hover"",""data"":{""x"":1144,""y"":267,""timestamp"":63502.10000002384},""timestamp"":63502.10000002384},{""type"":""chart_hover"",""data"":{""x"":1145,""y"":267,""timestamp"":63510.69999998808},""timestamp"":63510.69999998808},{""type"":""chart_hover"",""data"":{""x"":1147,""y"":267,""timestamp"":63516.80000001192},""timestamp"":63516.80000001192},{""type"":""chart_hover"",""data"":{""x"":1148,""y"":267,""timestamp"":63536.69999998808},""timestamp"":63536.69999998808},{""type"":""chart_hover"",""data"":{""x"":1149,""y"":267,""timestamp"":63545.30000001192},""timestamp"":63545.30000001192},{""type"":""chart_hover"",""data"":{""x"":1150,""y"":267,""timestamp"":63550.69999998808},""timestamp"":63550.69999998808},{""type"":""chart_hover"",""data"":{""x"":1151,""y"":267,""timestamp"":63560.80000001192},""timestamp"":63560.80000001192},{""type"":""chart_hover"",""data"":{""x"":1152,""y"":267,""timestamp"":63568.39999997616},""timestamp"":63568.39999997616},{""type"":""chart_hover"",""data"":{""x"":1154,""y"":267,""timestamp"":63587.60000002384},""timestamp"":63587.60000002384},{""type"":""chart_hover"",""data"":{""x"":1156,""y"":267,""timestamp"":63594.80000001192},""timestamp"":63594.80000001192},{""type"":""chart_hover"",""data"":{""x"":1157,""y"":267,""timestamp"":63617.5},""timestamp"":63617.5},{""type"":""chart_hover"",""data"":{""x"":1158,""y"":267,""timestamp"":63624.19999998808},""timestamp"":63624.19999998808},{""type"":""chart_hover"",""data"":{""x"":1159,""y"":267,""timestamp"":63631.39999997616},""timestamp"":63631.39999997616},{""type"":""chart_hover"",""data"":{""x"":1160,""y"":267,""timestamp"":63669.60000002384},""timestamp"":63669.60000002384},{""type"":""chart_hover"",""data"":{""x"":1161,""y"":267,""timestamp"":63676.69999998808},""timestamp"":63676.69999998808},{""type"":""chart_hover"",""data"":{""x"":1162,""y"":267,""timestamp"":63699.80000001192},""timestamp"":63699.80000001192},{""type"":""chart_hover"",""data"":{""x"":1163,""y"":267,""timestamp"":63718.30000001192},""timestamp"":63718.30000001192},{""type"":""chart_hover"",""data"":{""x"":1165,""y"":267,""timestamp"":63775.89999997616},""timestamp"":63775.89999997616},{""type"":""chart_hover"",""data"":{""x"":1166,""y"":267,""timestamp"":63794.60000002384},""timestamp"":63794.60000002384},{""type"":""chart_hover"",""data"":{""x"":1167,""y"":266,""timestamp"":63801.69999998808},""timestamp"":63801.69999998808},{""type"":""chart_hover"",""data"":{""x"":1168,""y"":266,""timestamp"":63809.5},""timestamp"":63809.5},{""type"":""chart_hover"",""data"":{""x"":1169,""y"":266,""timestamp"":63815.39999997616},""timestamp"":63815.39999997616},{""type"":""chart_hover"",""data"":{""x"":1170,""y"":266,""timestamp"":63822.30000001192},""timestamp"":63822.30000001192},{""type"":""chart_hover"",""data"":{""x"":1170,""y"":265,""timestamp"":63834.19999998808},""timestamp"":63834.19999998808},{""type"":""chart_hover"",""data"":{""x"":1171,""y"":265,""timestamp"":63841.89999997616},""timestamp"":63841.89999997616},{""type"":""chart_hover"",""data"":{""x"":1172,""y"":264,""timestamp"":63848.89999997616},""timestamp"":63848.89999997616},{""type"":""chart_hover"",""data"":{""x"":1173,""y"":264,""timestamp"":63871},""timestamp"":63871},{""type"":""chart_hover"",""data"":{""x"":1174,""y"":264,""timestamp"":63879.60000002384},""timestamp"":63879.60000002384},{""type"":""chart_hover"",""data"":{""x"":1175,""y"":264,""timestamp"":63886.89999997616},""timestamp"":63886.89999997616},{""type"":""chart_hover"",""data"":{""x"":1175,""y"":263,""timestamp"":63893.19999998808},""timestamp"":63893.19999998808},{""type"":""chart_hover"",""data"":{""x"":1176,""y"":263,""timestamp"":63912.69999998808},""timestamp"":63912.69999998808},{""type"":""chart_hover"",""data"":{""x"":1177,""y"":263,""timestamp"":63924.19999998808},""timestamp"":63924.19999998808},{""type"":""chart_hover"",""data"":{""x"":1178,""y"":263,""timestamp"":63954.80000001192},""timestamp"":63954.80000001192},{""type"":""chart_hover"",""data"":{""x"":1178,""y"":262,""timestamp"":63974.89999997616},""timestamp"":63974.89999997616},{""type"":""chart_hover"",""data"":{""x"":1179,""y"":262,""timestamp"":63981.89999997616},""timestamp"":63981.89999997616},{""type"":""chart_hover"",""data"":{""x"":1180,""y"":262,""timestamp"":64002.89999997616},""timestamp"":64002.89999997616},{""type"":""chart_hover"",""data"":{""x"":1181,""y"":262,""timestamp"":64009.39999997616},""timestamp"":64009.39999997616},{""type"":""chart_hover"",""data"":{""x"":1182,""y"":262,""timestamp"":64042.39999997616},""timestamp"":64042.39999997616},{""type"":""chart_hover"",""data"":{""x"":1182,""y"":261,""timestamp"":64049.80000001192},""timestamp"":64049.80000001192},{""type"":""chart_hover"",""data"":{""x"":1183,""y"":261,""timestamp"":64157.69999998808},""timestamp"":64157.69999998808},{""type"":""chart_hover"",""data"":{""x"":1184,""y"":261,""timestamp"":64195.10000002384},""timestamp"":64195.10000002384},{""type"":""chart_hover"",""data"":{""x"":1185,""y"":261,""timestamp"":64201.89999997616},""timestamp"":64201.89999997616},{""type"":""chart_hover"",""data"":{""x"":1186,""y"":261,""timestamp"":64224.89999997616},""timestamp"":64224.89999997616},{""type"":""chart_hover"",""data"":{""x"":1187,""y"":261,""timestamp"":64247.80000001192},""timestamp"":64247.80000001192},{""type"":""chart_hover"",""data"":{""x"":1188,""y"":261,""timestamp"":64285.10000002384},""timestamp"":64285.10000002384},{""type"":""chart_hover"",""data"":{""x"":1189,""y"":261,""timestamp"":64292},""timestamp"":64292},{""type"":""chart_hover"",""data"":{""x"":1190,""y"":261,""timestamp"":64314.69999998808},""timestamp"":64314.69999998808},{""type"":""chart_hover"",""data"":{""x"":1191,""y"":261,""timestamp"":64322.10000002384},""timestamp"":64322.10000002384},{""type"":""chart_hover"",""data"":{""x"":1192,""y"":261,""timestamp"":64352.5},""timestamp"":64352.5},{""type"":""chart_hover"",""data"":{""x"":1193,""y"":261,""timestamp"":64358.89999997616},""timestamp"":64358.89999997616},{""type"":""chart_hover"",""data"":{""x"":1194,""y"":261,""timestamp"":64382.5},""timestamp"":64382.5},{""type"":""chart_hover"",""data"":{""x"":1195,""y"":261,""timestamp"":64389.10000002384},""timestamp"":64389.10000002384},{""type"":""chart_hover"",""data"":{""x"":1196,""y"":262,""timestamp"":64406.80000001192},""timestamp"":64406.80000001192},{""type"":""chart_hover"",""data"":{""x"":1197,""y"":262,""timestamp"":64427.5},""timestamp"":64427.5},{""type"":""chart_hover"",""data"":{""x"":1197,""y"":263,""timestamp"":64536.60000002384},""timestamp"":64536.60000002384},{""type"":""chart_hover"",""data"":{""x"":1197,""y"":264,""timestamp"":66510.89999997616},""timestamp"":66510.89999997616},{""type"":""chart_hover"",""data"":{""x"":1197,""y"":265,""timestamp"":66532.60000002384},""timestamp"":66532.60000002384},{""type"":""chart_hover"",""data"":{""x"":1196,""y"":265,""timestamp"":66540.10000002384},""timestamp"":66540.10000002384},{""type"":""chart_hover"",""data"":{""x"":1195,""y"":265,""timestamp"":66547.89999997616},""timestamp"":66547.89999997616},{""type"":""chart_hover"",""data"":{""x"":1195,""y"":266,""timestamp"":66555.80000001192},""timestamp"":66555.80000001192},{""type"":""chart_hover"",""data"":{""x"":1194,""y"":267,""timestamp"":66588.30000001192},""timestamp"":66588.30000001192},{""type"":""chart_hover"",""data"":{""x"":1194,""y"":268,""timestamp"":66647.30000001192},""timestamp"":66647.30000001192},{""type"":""chart_hover"",""data"":{""x"":1194,""y"":269,""timestamp"":66978.19999998808},""timestamp"":66978.19999998808},{""type"":""chart_hover"",""data"":{""x"":1194,""y"":270,""timestamp"":67086.89999997616},""timestamp"":67086.89999997616},{""type"":""chart_hover"",""data"":{""x"":1195,""y"":270,""timestamp"":67194.80000001192},""timestamp"":67194.80000001192},{""type"":""chart_hover"",""data"":{""x"":1195,""y"":271,""timestamp"":67201.80000001192},""timestamp"":67201.80000001192},{""type"":""chart_hover"",""data"":{""x"":1196,""y"":271,""timestamp"":67236.89999997616},""timestamp"":67236.89999997616},{""type"":""chart_hover"",""data"":{""x"":1197,""y"":271,""timestamp"":67310.5},""timestamp"":67310.5},{""type"":""chart_hover"",""data"":{""x"":1198,""y"":271,""timestamp"":67330.89999997616},""timestamp"":67330.89999997616},{""type"":""chart_hover"",""data"":{""x"":1199,""y"":271,""timestamp"":67341.60000002384},""timestamp"":67341.60000002384},{""type"":""chart_hover"",""data"":{""x"":1200,""y"":271,""timestamp"":67348.80000001192},""timestamp"":67348.80000001192},{""type"":""chart_hover"",""data"":{""x"":1201,""y"":271,""timestamp"":67387.5},""timestamp"":67387.5},{""type"":""chart_hover"",""data"":{""x"":1202,""y"":271,""timestamp"":67449.89999997616},""timestamp"":67449.89999997616},{""type"":""chart_hover"",""data"":{""x"":1201,""y"":270,""timestamp"":67615.10000002384},""timestamp"":67615.19999998808},{""type"":""chart_hover"",""data"":{""x"":1200,""y"":269,""timestamp"":67635.10000002384},""timestamp"":67635.10000002384},{""type"":""chart_hover"",""data"":{""x"":1199,""y"":269,""timestamp"":67642.39999997616},""timestamp"":67642.39999997616},{""type"":""chart_hover"",""data"":{""x"":1197,""y"":268,""timestamp"":67649.10000002384},""timestamp"":67649.19999998808},{""type"":""chart_hover"",""data"":{""x"":1196,""y"":268,""timestamp"":67659},""timestamp"":67659},{""type"":""chart_hover"",""data"":{""x"":1195,""y"":268,""timestamp"":67666.39999997616},""timestamp"":67666.5},{""type"":""chart_hover"",""data"":{""x"":1194,""y"":268,""timestamp"":67674.10000002384},""timestamp"":67674.10000002384},{""type"":""chart_hover"",""data"":{""x"":1193,""y"":268,""timestamp"":67682.10000002384},""timestamp"":67682.10000002384},{""type"":""chart_hover"",""data"":{""x"":1192,""y"":268,""timestamp"":67697.69999998808},""timestamp"":67697.69999998808},{""type"":""chart_hover"",""data"":{""x"":1192,""y"":270,""timestamp"":67774.39999997616},""timestamp"":67774.39999997616},{""type"":""chart_hover"",""data"":{""x"":1192,""y"":271,""timestamp"":67803.10000002384},""timestamp"":67803.10000002384},{""type"":""chart_hover"",""data"":{""x"":1192,""y"":272,""timestamp"":67825.10000002384},""timestamp"":67825.10000002384},{""type"":""chart_hover"",""data"":{""x"":1193,""y"":272,""timestamp"":67847.30000001192},""timestamp"":67847.30000001192},{""type"":""chart_hover"",""data"":{""x"":1194,""y"":273,""timestamp"":67864.30000001192},""timestamp"":67864.30000001192},{""type"":""chart_hover"",""data"":{""x"":1195,""y"":273,""timestamp"":67870.89999997616},""timestamp"":67870.89999997616},{""type"":""chart_hover"",""data"":{""x"":1196,""y"":274,""timestamp"":67882.80000001192},""timestamp"":67882.80000001192},{""type"":""chart_hover"",""data"":{""x"":1197,""y"":274,""timestamp"":67889.39999997616},""timestamp"":67889.39999997616},{""type"":""chart_hover"",""data"":{""x"":1198,""y"":274,""timestamp"":67897.10000002384},""timestamp"":67897.19999998808},{""type"":""chart_hover"",""data"":{""x"":1199,""y"":274,""timestamp"":67903.69999998808},""timestamp"":67903.69999998808},{""type"":""chart_hover"",""data"":{""x"":1200,""y"":274,""timestamp"":67911.10000002384},""timestamp"":67911.10000002384},{""type"":""chart_hover"",""data"":{""x"":1201,""y"":274,""timestamp"":67918.5},""timestamp"":67918.5},{""type"":""chart_hover"",""data"":{""x"":1203,""y"":274,""timestamp"":67940.30000001192},""timestamp"":67940.30000001192},{""type"":""chart_hover"",""data"":{""x"":1203,""y"":273,""timestamp"":67947.39999997616},""timestamp"":67947.39999997616},{""type"":""chart_hover"",""data"":{""x"":1204,""y"":273,""timestamp"":67954.39999997616},""timestamp"":67954.5},{""type"":""chart_hover"",""data"":{""x"":1205,""y"":272,""timestamp"":67961.30000001192},""timestamp"":67961.30000001192},{""type"":""chart_hover"",""data"":{""x"":1206,""y"":272,""timestamp"":67968.30000001192},""timestamp"":67968.30000001192},{""type"":""chart_hover"",""data"":{""x"":1206,""y"":271,""timestamp"":67990},""timestamp"":67990},{""type"":""chart_hover"",""data"":{""x"":1207,""y"":271,""timestamp"":67997.39999997616},""timestamp"":67997.39999997616},{""type"":""chart_hover"",""data"":{""x"":1207,""y"":270,""timestamp"":68002.89999997616},""timestamp"":68002.89999997616},{""type"":""chart_hover"",""data"":{""x"":1207,""y"":269,""timestamp"":68077.5},""timestamp"":68077.5},{""type"":""chart_hover"",""data"":{""x"":1206,""y"":269,""timestamp"":68132.80000001192},""timestamp"":68132.80000001192},{""type"":""chart_hover"",""data"":{""x"":1205,""y"":269,""timestamp"":68139.60000002384},""timestamp"":68139.60000002384},{""type"":""chart_hover"",""data"":{""x"":1204,""y"":269,""timestamp"":68160.30000001192},""timestamp"":68160.30000001192},{""type"":""chart_hover"",""data"":{""x"":1203,""y"":269,""timestamp"":68167.39999997616},""timestamp"":68167.39999997616},{""type"":""chart_hover"",""data"":{""x"":1202,""y"":269,""timestamp"":68174.30000001192},""timestamp"":68174.30000001192},{""type"":""chart_hover"",""data"":{""x"":1202,""y"":270,""timestamp"":68181.39999997616},""timestamp"":68181.39999997616},{""type"":""chart_hover"",""data"":{""x"":1201,""y"":270,""timestamp"":68191.39999997616},""timestamp"":68191.39999997616},{""type"":""chart_hover"",""data"":{""x"":1202,""y"":271,""timestamp"":68281.89999997616},""timestamp"":68281.89999997616},{""type"":""chart_hover"",""data"":{""x"":1203,""y"":272,""timestamp"":68299.5},""timestamp"":68299.5},{""type"":""chart_hover"",""data"":{""x"":1204,""y"":272,""timestamp"":68320.10000002384},""timestamp"":68320.10000002384},{""type"":""chart_hover"",""data"":{""x"":1205,""y"":272,""timestamp"":68328.39999997616},""timestamp"":68328.39999997616},{""type"":""chart_hover"",""data"":{""x"":1204,""y"":272,""timestamp"":68424.80000001192},""timestamp"":68424.80000001192},{""type"":""chart_hover"",""data"":{""x"":1201,""y"":272,""timestamp"":68432.10000002384},""timestamp"":68432.10000002384},{""type"":""chart_hover"",""data"":{""x"":1195,""y"":272,""timestamp"":68440.10000002384},""timestamp"":68440.10000002384},{""type"":""chart_hover"",""data"":{""x"":1186,""y"":274,""timestamp"":68446.89999997616},""timestamp"":68446.89999997616},{""type"":""chart_hover"",""data"":{""x"":1172,""y"":277,""timestamp"":68454.39999997616},""timestamp"":68454.39999997616},{""type"":""chart_hover"",""data"":{""x"":1153,""y"":281,""timestamp"":68462.10000002384},""timestamp"":68462.10000002384},{""type"":""chart_hover"",""data"":{""x"":1121,""y"":286,""timestamp"":68469.10000002384},""timestamp"":68469.10000002384},{""type"":""chart_hover"",""data"":{""x"":1085,""y"":291,""timestamp"":68476.60000002384},""timestamp"":68476.60000002384},{""type"":""chart_hover"",""data"":{""x"":1043,""y"":295,""timestamp"":68484.19999998808},""timestamp"":68484.19999998808},{""type"":""chart_hover"",""data"":{""x"":1028,""y"":297,""timestamp"":68491.39999997616},""timestamp"":68491.39999997616},{""type"":""chart_hover"",""data"":{""x"":989,""y"":301,""timestamp"":68497.60000002384},""timestamp"":68497.60000002384},{""type"":""chart_hover"",""data"":{""x"":942,""y"":306,""timestamp"":68504.39999997616},""timestamp"":68504.39999997616},{""type"":""chart_hover"",""data"":{""x"":867,""y"":319,""timestamp"":68510.89999997616},""timestamp"":68510.89999997616},{""type"":""chart_hover"",""data"":{""x"":814,""y"":329,""timestamp"":68518.80000001192},""timestamp"":68518.80000001192},{""type"":""chart_hover"",""data"":{""x"":728,""y"":346,""timestamp"":68526.19999998808},""timestamp"":68526.19999998808},{""type"":""chart_hover"",""data"":{""x"":667,""y"":359,""timestamp"":68533.39999997616},""timestamp"":68533.39999997616},{""type"":""chart_hover"",""data"":{""x"":630,""y"":364,""timestamp"":68541.10000002384},""timestamp"":68541.10000002384},{""type"":""chart_hover"",""data"":{""x"":560,""y"":383,""timestamp"":68551.19999998808},""timestamp"":68551.19999998808},{""type"":""chart_hover"",""data"":{""x"":509,""y"":411,""timestamp"":68559.19999998808},""timestamp"":68559.19999998808},{""type"":""chart_hover"",""data"":{""x"":474,""y"":434,""timestamp"":68566.80000001192},""timestamp"":68566.80000001192},{""type"":""chart_hover"",""data"":{""x"":426,""y"":466,""timestamp"":68573.89999997616},""timestamp"":68573.89999997616},{""type"":""chart_hover"",""data"":{""x"":390,""y"":490,""timestamp"":68581.69999998808},""timestamp"":68581.69999998808},{""type"":""chart_hover"",""data"":{""x"":354,""y"":519,""timestamp"":68589.19999998808},""timestamp"":68589.19999998808},{""type"":""chart_leave"",""data"":{""timestamp"":68597.19999998808},""timestamp"":68597.19999998808},{""type"":""chart_enter"",""data"":{""timestamp"":71324.5},""timestamp"":71324.5},{""type"":""chart_hover"",""data"":{""x"":788,""y"":567,""timestamp"":71324.5},""timestamp"":71324.5},{""type"":""chart_hover"",""data"":{""x"":877,""y"":503,""timestamp"":71345.39999997616},""timestamp"":71345.39999997616},{""type"":""chart_hover"",""data"":{""x"":915,""y"":483,""timestamp"":71353.30000001192},""timestamp"":71353.30000001192},{""type"":""chart_hover"",""data"":{""x"":924,""y"":480,""timestamp"":71359.19999998808},""timestamp"":71359.19999998808},{""type"":""chart_hover"",""data"":{""x"":940,""y"":475,""timestamp"":71366.19999998808},""timestamp"":71366.19999998808},{""type"":""chart_hover"",""data"":{""x"":990,""y"":465,""timestamp"":71387.39999997616},""timestamp"":71387.39999997616},{""type"":""chart_hover"",""data"":{""x"":998,""y"":464,""timestamp"":71393.80000001192},""timestamp"":71393.80000001192},{""type"":""chart_hover"",""data"":{""x"":1002,""y"":464,""timestamp"":71400.80000001192},""timestamp"":71400.80000001192},{""type"":""chart_hover"",""data"":{""x"":1004,""y"":464,""timestamp"":71414.89999997616},""timestamp"":71414.89999997616},{""type"":""chart_hover"",""data"":{""x"":1003,""y"":464,""timestamp"":71421.60000002384},""timestamp"":71421.60000002384},{""type"":""chart_hover"",""data"":{""x"":1000,""y"":464,""timestamp"":71436.39999997616},""timestamp"":71436.5},{""type"":""chart_hover"",""data"":{""x"":992,""y"":462,""timestamp"":71442.5},""timestamp"":71442.5},{""type"":""chart_hover"",""data"":{""x"":984,""y"":461,""timestamp"":71449.69999998808},""timestamp"":71449.69999998808},{""type"":""chart_hover"",""data"":{""x"":984,""y"":458,""timestamp"":71779},""timestamp"":71779},{""type"":""chart_hover"",""data"":{""x"":984,""y"":457,""timestamp"":71784.89999997616},""timestamp"":71784.89999997616},{""type"":""chart_hover"",""data"":{""x"":984,""y"":446,""timestamp"":71791},""timestamp"":71791},{""type"":""chart_hover"",""data"":{""x"":986,""y"":442,""timestamp"":71803.80000001192},""timestamp"":71803.80000001192},{""type"":""chart_hover"",""data"":{""x"":987,""y"":438,""timestamp"":71811},""timestamp"":71811},{""type"":""chart_hover"",""data"":{""x"":992,""y"":429,""timestamp"":71826.19999998808},""timestamp"":71826.19999998808},{""type"":""chart_hover"",""data"":{""x"":994,""y"":422,""timestamp"":71834.5},""timestamp"":71834.5},{""type"":""chart_hover"",""data"":{""x"":997,""y"":410,""timestamp"":71840.60000002384},""timestamp"":71840.69999998808},{""type"":""chart_hover"",""data"":{""x"":998,""y"":403,""timestamp"":71847.60000002384},""timestamp"":71847.60000002384},{""type"":""chart_hover"",""data"":{""x"":999,""y"":396,""timestamp"":71854.39999997616},""timestamp"":71854.39999997616},{""type"":""chart_hover"",""data"":{""x"":999,""y"":385,""timestamp"":71861.19999998808},""timestamp"":71861.19999998808},{""type"":""chart_hover"",""data"":{""x"":999,""y"":376,""timestamp"":71868.19999998808},""timestamp"":71868.19999998808},{""type"":""chart_hover"",""data"":{""x"":999,""y"":369,""timestamp"":71875},""timestamp"":71875},{""type"":""chart_hover"",""data"":{""x"":1000,""y"":364,""timestamp"":71882},""timestamp"":71882},{""type"":""chart_hover"",""data"":{""x"":1000,""y"":360,""timestamp"":71889},""timestamp"":71889},{""type"":""chart_hover"",""data"":{""x"":1000,""y"":359,""timestamp"":71896.80000001192},""timestamp"":71896.80000001192},{""type"":""chart_hover"",""data"":{""x"":1001,""y"":357,""timestamp"":71904.10000002384},""timestamp"":71904.10000002384},{""type"":""chart_hover"",""data"":{""x"":1001,""y"":353,""timestamp"":71911.80000001192},""timestamp"":71911.80000001192},{""type"":""chart_hover"",""data"":{""x"":1002,""y"":352,""timestamp"":71919.60000002384},""timestamp"":71919.60000002384},{""type"":""chart_hover"",""data"":{""x"":1004,""y"":346,""timestamp"":71938},""timestamp"":71938},{""type"":""chart_hover"",""data"":{""x"":1004,""y"":345,""timestamp"":71944.60000002384},""timestamp"":71944.60000002384},{""type"":""chart_hover"",""data"":{""x"":1004,""y"":344,""timestamp"":71951.5},""timestamp"":71951.5},{""type"":""chart_hover"",""data"":{""x"":1005,""y"":342,""timestamp"":71958.5},""timestamp"":71958.5},{""type"":""chart_hover"",""data"":{""x"":1005,""y"":339,""timestamp"":71965.60000002384},""timestamp"":71965.60000002384},{""type"":""chart_hover"",""data"":{""x"":1005,""y"":337,""timestamp"":71972.10000002384},""timestamp"":71972.10000002384},{""type"":""chart_hover"",""data"":{""x"":1005,""y"":335,""timestamp"":71979.19999998808},""timestamp"":71979.19999998808},{""type"":""chart_hover"",""data"":{""x"":1005,""y"":333,""timestamp"":71986.60000002384},""timestamp"":71986.60000002384},{""type"":""chart_hover"",""data"":{""x"":1005,""y"":332,""timestamp"":71994.5},""timestamp"":71994.5},{""type"":""chart_hover"",""data"":{""x"":1005,""y"":330,""timestamp"":71999.10000002384},""timestamp"":71999.10000002384},{""type"":""chart_hover"",""data"":{""x"":1005,""y"":329,""timestamp"":72020.30000001192},""timestamp"":72020.30000001192},{""type"":""chart_hover"",""data"":{""x"":1005,""y"":328,""timestamp"":72027.10000002384},""timestamp"":72027.10000002384},{""type"":""chart_hover"",""data"":{""x"":1005,""y"":327,""timestamp"":72035.19999998808},""timestamp"":72035.19999998808},{""type"":""chart_hover"",""data"":{""x"":1005,""y"":326,""timestamp"":72040.80000001192},""timestamp"":72040.80000001192},{""type"":""chart_hover"",""data"":{""x"":1005,""y"":325,""timestamp"":72048},""timestamp"":72048},{""type"":""chart_hover"",""data"":{""x"":1005,""y"":324,""timestamp"":72055.80000001192},""timestamp"":72055.80000001192},{""type"":""chart_hover"",""data"":{""x"":1003,""y"":324,""timestamp"":72062.60000002384},""timestamp"":72062.60000002384},{""type"":""chart_hover"",""data"":{""x"":1002,""y"":320,""timestamp"":72069.39999997616},""timestamp"":72069.39999997616},{""type"":""chart_hover"",""data"":{""x"":1001,""y"":319,""timestamp"":72076.5},""timestamp"":72076.5},{""type"":""chart_hover"",""data"":{""x"":998,""y"":316,""timestamp"":72083.39999997616},""timestamp"":72083.39999997616},{""type"":""chart_hover"",""data"":{""x"":994,""y"":312