city_a_estimate,city_b_estimate,click_events,comprehension_ease,condition,condition_id,condition_name,confidence_label,confidence_rating,data_trust,display_format,end_time,failed_audio,failed_images,failed_video,hover_events,interaction_log,internal_node_id,participant_id,percent_score,phase,phase1_complete,phase2_complete,predictions_shown,probability_estimate,question_order,response,responses,round,rt,rt_total,skeptical_rating,slider_moved,start_time,stimulus,success,time_elapsed,time_on_viz,timeout,total_interactions,total_questions,total_score,travel_choice,trial_index,trial_type,trust_composite,usability_composite,usability_difficulty,view_history,visualization_literacy_score,visualization_shown
,,,,,,,,,,,,"[]","[]","[]",,,0.0-0.0,5e0e1b8800a6bf000a694f79,,,,,,,,,,,,,,,,,true,302,,false,,,,,0,preload,,,,,,
,,,,,,,,,,,,,,,,,0.0-1.0,5e0e1b8800a6bf000a694f79,,,,,,,,0,,,13037,,,,,"
	        <div class=""welcome-screen"">
	            <h1>Air Quality Prediction Study</h1>
	            <p>Welcome! You are about to participate in a research study about how people make decisions using air quality predictions. This study examines how different ways of presenting prediction information affect trust and decision-making. The study will take approximately 15 minutes.</p>
	            <div class=""study-info"">
	                <h3>What you'll do:</h3>
	                <ul>
	                    <li>Complete a brief assessment of visualization understanding</li>
	                    <li>Make predictions about air quality in two cities</li>
	                    <li>Answer questions about your confidence and trust</li>
						<li>Report basic demographic data</li>
	                </ul>
	            </div>
	        </div>
	    ",,13340,,,,,,,1,html-button-response,,,,,,
,,,,,,,,,,,,,,,,,0.0-2.0,5e0e1b8800a6bf000a694f79,,,,,,,,,,,7650,,,,,,true,22000,,,,,,,2,fullscreen,,,,,,
,,,,,,,,,,,,,,,,,0.0-3.0,5e0e1b8800a6bf000a694f79,,,,,,,,"{""participant_id"":""5e0e1b8800a6bf000a694f79""}",,,4492,,,,,,,26519,,,,,,,3,survey-text,,,,,,
,,,,,,,,,,,,,,,,,0.0-4.0,5e0e1b8800a6bf000a694f79,,,,,,,,0,,,2033,,,,,"
	        <div class=""consent-form"">
	            <h2>Consent Form</h2>
	            <div class=""consent-header"">
	                <p><strong>Principal Investigator:</strong> Dr. Cindy Xiong Bearfield, Assistant Professor</p>
	                <p><strong>Study Title:</strong> Trusting What We See: Effect of Interactivity in Visual Data Analysis</p>
	                <p><strong>Supported By:</strong> Georgia Institute of Technology</p>
	            </div>
	            
	            <div class=""consent-details"">
	                <h3>WHAT IS THIS FORM?</h3>
	                <p>This form is called a Consent Form. It will give you information about the study so you can make an informed decision about participation in this research. We encourage you to take some time to think this over and ask questions now and at any other time. If you decide to participate, you will be asked to sign this form and you will be given a copy for your records.</p>

	                <h3>WHAT ARE SOME OF THE IMPORTANT ASPECTS OF THIS RESEARCH STUDY THAT I SHOULD BE AWARE OF?</h3>
	                <ul>
	                    <li>Whether or not you take part is up to you.</li>
	                    <li>You can choose not to take part.</li>
	                    <li>You can agree to take part and later change your mind.</li>
	                    <li>Your decision will not be held against you.</li>
	                </ul>

	                <h3>WHY ARE WE DOING THIS RESEARCH STUDY?</h3>
	                <p>The purpose of our study is to explore the visualization design space so we can understand how people perceive, interpret, and make decisions from visualizations. The results from this study can help us design visualizations and visualization guidelines to help people better communicate and understand data.</p>

	                <h3>WHO CAN PARTICIPATE IN THIS RESEARCH STUDY?</h3>
	                <p>Participants in this study must be at least 18 years of age or older and have general familiarity with using web-based systems. Participants currently outside of the U.S. cannot participate in this study (e.g. in the European Union or China).</p>

	                <h3>WHAT COMPENSATION I WILL RECEIVE?</h3>
	                <p>You will receive payment through Prolific worth $12/hour for participating in this study. We expect this study to take less than 20 minutes. Your participation is entirely voluntary. You are free to withdraw at any time, and if you do, you will receive partial payment for your time.</p>

	                <h3>HOW MANY PEOPLE WILL PARTICIPATE?</h3>
	                <p>We expect about 200 people will be in this research study.</p>

	                <h3>WHAT WILL I BE ASKED TO DO AND HOW MUCH TIME WILL IT TAKE?</h3>
	                <p>We will show you several data visualizations or components of a visualization and ask you to perform a visual task with the visualization on a computer screen, such as counting, searching, recognizing, memorizing, or describing the information presented to you. We may also ask you to fill out questionnaires concerning your thoughts regarding the visualization you saw. We expect that you will be in this research study to take between 15 and 60 minutes. We expect this study to be a one-off session and will not contact you regarding the study itself in the future.</p>

	                <h3>WILL BEING IN THIS RESEARCH STUDY HELP ME IN ANY WAY?</h3>
	                <p>You are not likely to have any direct benefit from being in this research study. The potential benefits to you from participation may include learning about how data visualization research is conducted, and you may learn about issues of current interest in data visualization and psychology.</p>

	                <h3>WHAT ARE MY RISKS OF BEING IN THIS RESEARCH STUDY?</h3>
	                <p>Your participation in this study does not involve any risks other than what you would encounter in daily life. In particular, you may experience fatigue or boredom, however, you may take breaks between tasks. The effects of participating should be comparable to those you would experience from viewing a computer monitor and using a keyboard. You may withdraw at any time.</p>

	                <h3>HOW WILL MY PERSONAL INFORMATION BE PROTECTED?</h3>
	                <p>We will comply with any applicable laws and regulations regarding confidentiality. To make sure that this research is being carried out in the proper way, the Georgia Institute of Technology IRB may review study records. The Office of Human Research Protections may also look at study records.</p>
	                <p>Efforts will be made to limit the use and disclosure of your personal information, including research study records, to people who need to review this information. We cannot promise complete secrecy. Organizations that may inspect and copy your information include the IRB and other representatives of this institution. Please be notified that our data privacy policy is based on U.S. regulations. Participants who are out of the U.S. might be excluded due to different data privacy requirements.</p>
	                <p><strong>Data Sharing:</strong> De-identified data from this study will be shared among the GATech research team, as well as the research community at large to advance science and health. We will remove or code any personal information that could identify you before files are shared with other researchers to ensure that, by current scientific standards and known methods, no one will be able to identify you from the information we share. Despite these measures, we cannot guarantee the anonymity of your personal data.</p>

	                <h3>WILL I BE GIVEN ANY MONEY OR OTHER COMPENSATION FOR BEING IN THIS RESEARCH STUDY?</h3>
	                <p>If you agree to take part in this research study, we will provide compensation. You will be paid in accordance with the stated policies of Amazon Mechanical Turk and/or Prolific.com. Payment will be made upon completion and acceptance of tasks that you have agreed to complete and you will be paid via Mechanical Turk or Prolific.com. If you choose to withdraw from the study, you will not be compensated for your participation.</p>

	                <h3>WHAT ELSE DO I NEED TO KNOW?</h3>
	                <p>We might be using attention check questions in our surveys. If you miss 2 or more attention check questions, your HIT will not be accepted and you will not be compensated.</p>

	                <h3>WHO CAN I TALK TO IF I HAVE QUESTIONS?</h3>
	                <p>If you have any questions about the content of this research project, you may contact Dr. Cindy Xiong Bearfield at cxiong@gatech.edu, or contact Songwen Hu at shu343@gatech.edu. If you have any questions about your rights as a research subject, you may also contact Georgia Institute of Technology Office of Research Integrity Assurance at IRB@gatech.edu.</p>

	                <h3>WHAT HAPPENS IF I SAY YES, BUT I CHANGE MY MIND LATER?</h3>
	                <p>You can decide not to participate in this research or you can start and then decide to leave the research at any time and it will not be held against you. To do so, simply exit the experiment. Any data already collected will not be saved.</p>

	                <p><strong>By clicking ""I agree"" below you are indicating that you are at least 18 years old, currently in the U.S., have read this consent form, and agree to participate in this research study. Please print a copy of this page for your records.</strong></p>
	            </div>
	        </div>
	    ",,28553,,,,,,,4,html-button-response,,,,,,
,,,,,,,,,,,,,,,,,0.0-5.0,5e0e1b8800a6bf000a694f79,,,,,,,,0,,,1902,,,,,"
	        <div class=""vis-literacy-intro"">
	            <h2>Visualization Assessment</h2>
	            <p>Before we begin the main study, we'd like to assess your ability to read and interpret data visualizations.</p>
	            
	            <div class=""assessment-info"">
	                <h3>What you'll do:</h3>
	                <ul>
	                    <li>View 12 different data visualizations (charts and graphs)</li>
	                    <li>Answer questions about what each visualization shows</li>
	                    <li>Take your time to examine each chart carefully</li>
	                </ul>
	                
	                <p><strong>This assessment will take approximately 5-10 minutes.</strong></p>
	                <p>There are no right or wrong interpretations - we're interested in how you read visualizations.</p>
	            </div>
	        </div>
	    ",,30456,,,,,,,5,html-button-response,,,,,,
,,,,,condition_1_baseline,Baseline,,,,,,,,,,,0.0-6.0,5e0e1b8800a6bf000a694f79,92,,,,,,,,"[{""question_id"":""minivlat_1"",""question_type"":""treemap"",""question_text"":""eBay is nested in the Software category."",""response"":1,""correct_answer"":1,""is_correct"":true,""rt"":11600},{""question_id"":""minivlat_2"",""question_type"":""stacked_100_bar"",""question_text"":""Which country has the lowest proportion of Gold medals?"",""response"":1,""correct_answer"":1,""is_correct"":true,""rt"":11994},{""question_id"":""minivlat_3"",""question_type"":""histogram"",""question_text"":""What distance have customers traveled the most?"",""response"":1,""correct_answer"":1,""is_correct"":true,""rt"":15785},{""question_id"":""minivlat_4"",""question_type"":""choropleth"",""question_text"":""In 2020, the unemployment rate for Washington (WA) was higher than that of Wisconsin (WI)."",""response"":0,""correct_answer"":0,""is_correct"":true,""rt"":17297},{""question_id"":""minivlat_5"",""question_type"":""pie_chart"",""question_text"":""What is the approximate global smartphone market share of Samsung?"",""response"":0,""correct_answer"":0,""is_correct"":true,""rt"":25531},{""question_id"":""minivlat_6"",""question_type"":""bubble_chart"",""question_text"":""Which has the largest number of metro stations?"",""response"":1,""correct_answer"":1,""is_correct"":true,""rt"":18864},{""question_id"":""minivlat_7"",""question_type"":""stacked_bar"",""question_text"":""What is the cost of peanuts in Seoul?"",""response"":3,""correct_answer"":1,""is_correct"":false,""rt"":15841},{""question_id"":""minivlat_8"",""question_type"":""line_chart"",""question_text"":""What was the price of a barrel of oil in February 2020?"",""response"":0,""correct_answer"":0,""is_correct"":true,""rt"":10882},{""question_id"":""minivlat_9"",""question_type"":""bar_chart"",""question_text"":""What is the average internet speed in Japan?"",""response"":1,""correct_answer"":1,""is_correct"":true,""rt"":17459},{""question_id"":""minivlat_10"",""question_type"":""area_chart"",""question_text"":""What was the average price of a pound of coffee in October 2019?"",""response"":0,""correct_answer"":0,""is_correct"":true,""rt"":19985},{""question_id"":""minivlat_11"",""question_type"":""stacked_area"",""question_text"":""What was the ratio of girls named \""Isla\"" to girls named \""Amelia\"" in 2012 in the UK?"",""response"":1,""correct_answer"":1,""is_correct"":true,""rt"":28746},{""question_id"":""minivlat_12"",""question_type"":""scatter_plot"",""question_text"":""There is a negative relationship between the height and weight of the 85 males."",""response"":1,""correct_answer"":1,""is_correct"":true,""rt"":8982}]",,,202966,,,,,,233424,,,,12,11,,6,vis-literacy,,,,,,
,,,,,,,,,,,,,,,,,0.0-7.0,5e0e1b8800a6bf000a694f79,,,,,,,,,,,129194,,,,,,,362619,,,,,,,7,instructions,,,,"[{""page_index"":0,""viewing_time"":129194}]",,
89,94,,,,condition_0_historical,Historical Only,Uncertain,2,,historical_only,,,,,,"[{""type"":""chart_hover"",""data"":{""x"":1077,""y"":232,""timestamp"":938},""timestamp"":938},{""type"":""chart_hover"",""data"":{""x"":1078,""y"":227,""timestamp"":939},""timestamp"":939},{""type"":""chart_hover"",""data"":{""x"":1078,""y"":229,""timestamp"":951},""timestamp"":951},{""type"":""chart_hover"",""data"":{""x"":1078,""y"":231,""timestamp"":958},""timestamp"":958},{""type"":""chart_hover"",""data"":{""x"":1081,""y"":231,""timestamp"":963},""timestamp"":963},{""type"":""chart_hover"",""data"":{""x"":1083,""y"":231,""timestamp"":968},""timestamp"":968},{""type"":""chart_hover"",""data"":{""x"":1085,""y"":231,""timestamp"":973},""timestamp"":973},{""type"":""chart_hover"",""data"":{""x"":1084,""y"":231,""timestamp"":989},""timestamp"":989},{""type"":""chart_hover"",""data"":{""x"":1084,""y"":233,""timestamp"":1002},""timestamp"":1002},{""type"":""chart_hover"",""data"":{""x"":1084,""y"":235,""timestamp"":1009},""timestamp"":1009},{""type"":""chart_hover"",""data"":{""x"":1081,""y"":238,""timestamp"":1014},""timestamp"":1014},{""type"":""chart_hover"",""data"":{""x"":1081,""y"":240,""timestamp"":1019},""timestamp"":1019},{""type"":""chart_hover"",""data"":{""x"":1081,""y"":242,""timestamp"":1023},""timestamp"":1023},{""type"":""chart_hover"",""data"":{""x"":1081,""y"":244,""timestamp"":1026},""timestamp"":1026},{""type"":""chart_hover"",""data"":{""x"":1081,""y"":247,""timestamp"":1029},""timestamp"":1029},{""type"":""chart_hover"",""data"":{""x"":1081,""y"":249,""timestamp"":1034},""timestamp"":1034},{""type"":""chart_hover"",""data"":{""x"":1081,""y"":251,""timestamp"":1037},""timestamp"":1037},{""type"":""chart_hover"",""data"":{""x"":1081,""y"":253,""timestamp"":1040},""timestamp"":1040},{""type"":""chart_hover"",""data"":{""x"":1079,""y"":253,""timestamp"":1041},""timestamp"":1041},{""type"":""chart_hover"",""data"":{""x"":1079,""y"":256,""timestamp"":1042},""timestamp"":1042},{""type"":""chart_hover"",""data"":{""x"":1079,""y"":258,""timestamp"":1045},""timestamp"":1045},{""type"":""chart_hover"",""data"":{""x"":1079,""y"":260,""timestamp"":1049},""timestamp"":1049},{""type"":""chart_hover"",""data"":{""x"":1079,""y"":262,""timestamp"":1052},""timestamp"":1052},{""type"":""chart_hover"",""data"":{""x"":1077,""y"":265,""timestamp"":1055},""timestamp"":1055},{""type"":""chart_hover"",""data"":{""x"":1077,""y"":267,""timestamp"":1056},""timestamp"":1056},{""type"":""chart_hover"",""data"":{""x"":1077,""y"":269,""timestamp"":1059},""timestamp"":1059},{""type"":""chart_hover"",""data"":{""x"":1077,""y"":271,""timestamp"":1061},""timestamp"":1061},{""type"":""chart_hover"",""data"":{""x"":1075,""y"":271,""timestamp"":1062},""timestamp"":1062},{""type"":""chart_hover"",""data"":{""x"":1075,""y"":274,""timestamp"":1065},""timestamp"":1065},{""type"":""chart_hover"",""data"":{""x"":1075,""y"":276,""timestamp"":1067},""timestamp"":1067},{""type"":""chart_hover"",""data"":{""x"":1075,""y"":278,""timestamp"":1069},""timestamp"":1069},{""type"":""chart_hover"",""data"":{""x"":1072,""y"":278,""timestamp"":1070},""timestamp"":1070},{""type"":""chart_hover"",""data"":{""x"":1072,""y"":280,""timestamp"":1072},""timestamp"":1072},{""type"":""chart_hover"",""data"":{""x"":1072,""y"":283,""timestamp"":1073},""timestamp"":1073},{""type"":""chart_hover"",""data"":{""x"":1070,""y"":285,""timestamp"":1075},""timestamp"":1075},{""type"":""chart_hover"",""data"":{""x"":1070,""y"":287,""timestamp"":1077},""timestamp"":1077},{""type"":""chart_hover"",""data"":{""x"":1070,""y"":289,""timestamp"":1079},""timestamp"":1079},{""type"":""chart_hover"",""data"":{""x"":1068,""y"":289,""timestamp"":1080},""timestamp"":1080},{""type"":""chart_hover"",""data"":{""x"":1068,""y"":292,""timestamp"":1082},""timestamp"":1082},{""type"":""chart_hover"",""data"":{""x"":1068,""y"":294,""timestamp"":1084},""timestamp"":1084},{""type"":""chart_hover"",""data"":{""x"":1066,""y"":296,""timestamp"":1085},""timestamp"":1085},{""type"":""chart_hover"",""data"":{""x"":1066,""y"":298,""timestamp"":1087},""timestamp"":1087},{""type"":""chart_hover"",""data"":{""x"":1066,""y"":301,""timestamp"":1089},""timestamp"":1089},{""type"":""chart_hover"",""data"":{""x"":1063,""y"":301,""timestamp"":1089},""timestamp"":1089},{""type"":""chart_hover"",""data"":{""x"":1063,""y"":303,""timestamp"":1090},""timestamp"":1090},{""type"":""chart_hover"",""data"":{""x"":1061,""y"":305,""timestamp"":1092},""timestamp"":1092},{""type"":""chart_hover"",""data"":{""x"":1061,""y"":307,""timestamp"":1094},""timestamp"":1094},{""type"":""chart_hover"",""data"":{""x"":1059,""y"":310,""timestamp"":1096},""timestamp"":1096},{""type"":""chart_hover"",""data"":{""x"":1059,""y"":312,""timestamp"":1098},""timestamp"":1098},{""type"":""chart_hover"",""data"":{""x"":1059,""y"":314,""timestamp"":1100},""timestamp"":1100},{""type"":""chart_hover"",""data"":{""x"":1057,""y"":314,""timestamp"":1101},""timestamp"":1101},{""type"":""chart_hover"",""data"":{""x"":1057,""y"":316,""timestamp"":1102},""timestamp"":1102},{""type"":""chart_hover"",""data"":{""x"":1057,""y"":319,""timestamp"":1104},""timestamp"":1104},{""type"":""chart_hover"",""data"":{""x"":1054,""y"":319,""timestamp"":1105},""timestamp"":1105},{""type"":""chart_hover"",""data"":{""x"":1054,""y"":321,""timestamp"":1105},""timestamp"":1105},{""type"":""chart_hover"",""data"":{""x"":1052,""y"":323,""timestamp"":1107},""timestamp"":1107},{""type"":""chart_hover"",""data"":{""x"":1052,""y"":325,""timestamp"":1109},""timestamp"":1109},{""type"":""chart_hover"",""data"":{""x"":1050,""y"":328,""timestamp"":1111},""timestamp"":1111},{""type"":""chart_hover"",""data"":{""x"":1050,""y"":330,""timestamp"":1114},""timestamp"":1114},{""type"":""chart_hover"",""data"":{""x"":1048,""y"":332,""timestamp"":1116},""timestamp"":1116},{""type"":""chart_hover"",""data"":{""x"":1048,""y"":334,""timestamp"":1118},""timestamp"":1118},{""type"":""chart_hover"",""data"":{""x"":1045,""y"":337,""timestamp"":1120},""timestamp"":1120},{""type"":""chart_hover"",""data"":{""x"":1045,""y"":339,""timestamp"":1122},""timestamp"":1122},{""type"":""chart_hover"",""data"":{""x"":1043,""y"":339,""timestamp"":1124},""timestamp"":1124},{""type"":""chart_hover"",""data"":{""x"":1043,""y"":341,""timestamp"":1124},""timestamp"":1124},{""type"":""chart_hover"",""data"":{""x"":1043,""y"":343,""timestamp"":1126},""timestamp"":1126},{""type"":""chart_hover"",""data"":{""x"":1041,""y"":343,""timestamp"":1127},""timestamp"":1127},{""type"":""chart_hover"",""data"":{""x"":1041,""y"":346,""timestamp"":1128},""timestamp"":1128},{""type"":""chart_hover"",""data"":{""x"":1039,""y"":348,""timestamp"":1131},""timestamp"":1131},{""type"":""chart_hover"",""data"":{""x"":1039,""y"":350,""timestamp"":1133},""timestamp"":1133},{""type"":""chart_hover"",""data"":{""x"":1036,""y"":352,""timestamp"":1135},""timestamp"":1135},{""type"":""chart_hover"",""data"":{""x"":1036,""y"":355,""timestamp"":1137},""timestamp"":1137},{""type"":""chart_hover"",""data"":{""x"":1034,""y"":355,""timestamp"":1139},""timestamp"":1139},{""type"":""chart_hover"",""data"":{""x"":1034,""y"":357,""timestamp"":1140},""timestamp"":1140},{""type"":""chart_hover"",""data"":{""x"":1034,""y"":359,""timestamp"":1142},""timestamp"":1142},{""type"":""chart_hover"",""data"":{""x"":1032,""y"":359,""timestamp"":1143},""timestamp"":1143},{""type"":""chart_hover"",""data"":{""x"":1032,""y"":361,""timestamp"":1144},""timestamp"":1144},{""type"":""chart_hover"",""data"":{""x"":1032,""y"":364,""timestamp"":1146},""timestamp"":1146},{""type"":""chart_hover"",""data"":{""x"":1030,""y"":364,""timestamp"":1147},""timestamp"":1147},{""type"":""chart_hover"",""data"":{""x"":1030,""y"":366,""timestamp"":1149},""timestamp"":1149},{""type"":""chart_hover"",""data"":{""x"":1030,""y"":368,""timestamp"":1151},""timestamp"":1151},{""type"":""chart_hover"",""data"":{""x"":1027,""y"":368,""timestamp"":1152},""timestamp"":1152},{""type"":""chart_hover"",""data"":{""x"":1027,""y"":370,""timestamp"":1153},""timestamp"":1153},{""type"":""chart_hover"",""data"":{""x"":1027,""y"":373,""timestamp"":1155},""timestamp"":1155},{""type"":""chart_hover"",""data"":{""x"":1025,""y"":373,""timestamp"":1156},""timestamp"":1156},{""type"":""chart_hover"",""data"":{""x"":1025,""y"":375,""timestamp"":1158},""timestamp"":1158},{""type"":""chart_hover"",""data"":{""x"":1025,""y"":377,""timestamp"":1161},""timestamp"":1161},{""type"":""chart_hover"",""data"":{""x"":1023,""y"":377,""timestamp"":1161},""timestamp"":1161},{""type"":""chart_hover"",""data"":{""x"":1023,""y"":379,""timestamp"":1162},""timestamp"":1162},{""type"":""chart_hover"",""data"":{""x"":1023,""y"":382,""timestamp"":1164},""timestamp"":1164},{""type"":""chart_hover"",""data"":{""x"":1021,""y"":382,""timestamp"":1166},""timestamp"":1166},{""type"":""chart_hover"",""data"":{""x"":1021,""y"":384,""timestamp"":1167},""timestamp"":1167},{""type"":""chart_hover"",""data"":{""x"":1021,""y"":386,""timestamp"":1169},""timestamp"":1169},{""type"":""chart_hover"",""data"":{""x"":1021,""y"":388,""timestamp"":1171},""timestamp"":1171},{""type"":""chart_hover"",""data"":{""x"":1018,""y"":388,""timestamp"":1173},""timestamp"":1173},{""type"":""chart_hover"",""data"":{""x"":1018,""y"":391,""timestamp"":1173},""timestamp"":1173},{""type"":""chart_hover"",""data"":{""x"":1018,""y"":393,""timestamp"":1175},""timestamp"":1175},{""type"":""chart_hover"",""data"":{""x"":1016,""y"":395,""timestamp"":1178},""timestamp"":1178},{""type"":""chart_hover"",""data"":{""x"":1016,""y"":397,""timestamp"":1180},""timestamp"":1180},{""type"":""chart_hover"",""data"":{""x"":1016,""y"":400,""timestamp"":1182},""timestamp"":1182},{""type"":""chart_hover"",""data"":{""x"":1016,""y"":402,""timestamp"":1184},""timestamp"":1184},{""type"":""chart_hover"",""data"":{""x"":1014,""y"":402,""timestamp"":1185},""timestamp"":1185},{""type"":""chart_hover"",""data"":{""x"":1014,""y"":404,""timestamp"":1186},""timestamp"":1186},{""type"":""chart_hover"",""data"":{""x"":1014,""y"":406,""timestamp"":1189},""timestamp"":1189},{""type"":""chart_hover"",""data"":{""x"":1014,""y"":409,""timestamp"":1191},""timestamp"":1191},{""type"":""chart_hover"",""data"":{""x"":1014,""y"":411,""timestamp"":1193},""timestamp"":1193},{""type"":""chart_hover"",""data"":{""x"":1012,""y"":413,""timestamp"":1195},""timestamp"":1195},{""type"":""chart_hover"",""data"":{""x"":1012,""y"":415,""timestamp"":1197},""timestamp"":1197},{""type"":""chart_hover"",""data"":{""x"":1012,""y"":418,""timestamp"":1199},""timestamp"":1199},{""type"":""chart_hover"",""data"":{""x"":1012,""y"":420,""timestamp"":1201},""timestamp"":1201},{""type"":""chart_hover"",""data"":{""x"":1012,""y"":422,""timestamp"":1203},""timestamp"":1203},{""type"":""chart_hover"",""data"":{""x"":1012,""y"":424,""timestamp"":1205},""timestamp"":1205},{""type"":""chart_hover"",""data"":{""x"":1009,""y"":424,""timestamp"":1206},""timestamp"":1206},{""type"":""chart_hover"",""data"":{""x"":1009,""y"":427,""timestamp"":1208},""timestamp"":1208},{""type"":""chart_hover"",""data"":{""x"":1009,""y"":429,""timestamp"":1210},""timestamp"":1210},{""type"":""chart_hover"",""data"":{""x"":1009,""y"":431,""timestamp"":1212},""timestamp"":1212},{""type"":""chart_hover"",""data"":{""x"":1009,""y"":433,""timestamp"":1214},""timestamp"":1214},{""type"":""chart_hover"",""data"":{""x"":1009,""y"":436,""timestamp"":1216},""timestamp"":1216},{""type"":""chart_hover"",""data"":{""x"":1007,""y"":438,""timestamp"":1218},""timestamp"":1218},{""type"":""chart_hover"",""data"":{""x"":1007,""y"":440,""timestamp"":1220},""timestamp"":1220},{""type"":""chart_hover"",""data"":{""x"":1007,""y"":442,""timestamp"":1223},""timestamp"":1223},{""type"":""chart_hover"",""data"":{""x"":1007,""y"":445,""timestamp"":1225},""timestamp"":1225},{""type"":""chart_hover"",""data"":{""x"":1005,""y"":447,""timestamp"":1227},""timestamp"":1227},{""type"":""chart_hover"",""data"":{""x"":1005,""y"":449,""timestamp"":1229},""timestamp"":1229},{""type"":""chart_hover"",""data"":{""x"":1005,""y"":451,""timestamp"":1232},""timestamp"":1232},{""type"":""chart_hover"",""data"":{""x"":1005,""y"":454,""timestamp"":1234},""timestamp"":1234},{""type"":""chart_hover"",""data"":{""x"":1003,""y"":454,""timestamp"":1235},""timestamp"":1235},{""type"":""chart_hover"",""data"":{""x"":1003,""y"":456,""timestamp"":1236},""timestamp"":1236},{""type"":""chart_hover"",""data"":{""x"":1003,""y"":458,""timestamp"":1239},""timestamp"":1239},{""type"":""chart_hover"",""data"":{""x"":1003,""y"":460,""timestamp"":1241},""timestamp"":1241},{""type"":""chart_hover"",""data"":{""x"":1000,""y"":460,""timestamp"":1243},""timestamp"":1243},{""type"":""chart_hover"",""data"":{""x"":1000,""y"":463,""timestamp"":1244},""timestamp"":1244},{""type"":""chart_hover"",""data"":{""x"":1000,""y"":465,""timestamp"":1246},""timestamp"":1246},{""type"":""chart_hover"",""data"":{""x"":998,""y"":467,""timestamp"":1249},""timestamp"":1249},{""type"":""chart_hover"",""data"":{""x"":998,""y"":469,""timestamp"":1252},""timestamp"":1252},{""type"":""chart_hover"",""data"":{""x"":998,""y"":472,""timestamp"":1255},""timestamp"":1255},{""type"":""chart_hover"",""data"":{""x"":996,""y"":472,""timestamp"":1256},""timestamp"":1256},{""type"":""chart_hover"",""data"":{""x"":996,""y"":474,""timestamp"":1259},""timestamp"":1259},{""type"":""chart_hover"",""data"":{""x"":996,""y"":476,""timestamp"":1262},""timestamp"":1262},{""type"":""chart_hover"",""data"":{""x"":994,""y"":476,""timestamp"":1263},""timestamp"":1263},{""type"":""chart_hover"",""data"":{""x"":994,""y"":478,""timestamp"":1267},""timestamp"":1267},{""type"":""chart_hover"",""data"":{""x"":991,""y"":478,""timestamp"":1269},""timestamp"":1269},{""type"":""chart_hover"",""data"":{""x"":991,""y"":481,""timestamp"":1270},""timestamp"":1270},{""type"":""chart_hover"",""data"":{""x"":991,""y"":483,""timestamp"":1274},""timestamp"":1274},{""type"":""chart_hover"",""data"":{""x"":989,""y"":483,""timestamp"":1276},""timestamp"":1276},{""type"":""chart_hover"",""data"":{""x"":989,""y"":485,""timestamp"":1280},""timestamp"":1280},{""type"":""chart_hover"",""data"":{""x"":987,""y"":485,""timestamp"":1285},""timestamp"":1285},{""type"":""chart_hover"",""data"":{""x"":987,""y"":487,""timestamp"":1285},""timestamp"":1285},{""type"":""chart_hover"",""data"":{""x"":987,""y"":490,""timestamp"":1292},""timestamp"":1292},{""type"":""chart_hover"",""data"":{""x"":985,""y"":490,""timestamp"":1295},""timestamp"":1295},{""type"":""chart_hover"",""data"":{""x"":985,""y"":492,""timestamp"":1303},""timestamp"":1303},{""type"":""chart_hover"",""data"":{""x"":982,""y"":492,""timestamp"":1357},""timestamp"":1357},{""type"":""chart_hover"",""data"":{""x"":982,""y"":490,""timestamp"":1367},""timestamp"":1367},{""type"":""chart_hover"",""data"":{""x"":982,""y"":488,""timestamp"":1374},""timestamp"":1374},{""type"":""chart_hover"",""data"":{""x"":980,""y"":488,""timestamp"":1377},""timestamp"":1377},{""type"":""chart_hover"",""data"":{""x"":980,""y"":486,""timestamp"":1380},""timestamp"":1380},{""type"":""chart_hover"",""data"":{""x"":980,""y"":484,""timestamp"":1388},""timestamp"":1388},{""type"":""chart_hover"",""data"":{""x"":978,""y"":484,""timestamp"":1392},""timestamp"":1392},{""type"":""chart_hover"",""data"":{""x"":978,""y"":481,""timestamp"":1392},""timestamp"":1392},{""type"":""chart_hover"",""data"":{""x"":978,""y"":479,""timestamp"":1398},""timestamp"":1398},{""type"":""chart_hover"",""data"":{""x"":978,""y"":477,""timestamp"":1405},""timestamp"":1405},{""type"":""chart_hover"",""data"":{""x"":976,""y"":477,""timestamp"":1407},""timestamp"":1407},{""type"":""chart_hover"",""data"":{""x"":976,""y"":475,""timestamp"":1409},""timestamp"":1409},{""type"":""chart_hover"",""data"":{""x"":976,""y"":472,""timestamp"":1414},""timestamp"":1414},{""type"":""chart_hover"",""data"":{""x"":973,""y"":470,""timestamp"":1421},""timestamp"":1421},{""type"":""chart_hover"",""data"":{""x"":973,""y"":468,""timestamp"":1426},""timestamp"":1426},{""type"":""chart_hover"",""data"":{""x"":973,""y"":466,""timestamp"":1432},""timestamp"":1432},{""type"":""chart_hover"",""data"":{""x"":971,""y"":466,""timestamp"":1436},""timestamp"":1436},{""type"":""chart_hover"",""data"":{""x"":971,""y"":463,""timestamp"":1440},""timestamp"":1440},{""type"":""chart_hover"",""data"":{""x"":971,""y"":461,""timestamp"":1446},""timestamp"":1446},{""type"":""chart_hover"",""data"":{""x"":969,""y"":461,""timestamp"":1450},""timestamp"":1450},{""type"":""chart_hover"",""data"":{""x"":969,""y"":459,""timestamp"":1455},""timestamp"":1455},{""type"":""chart_hover"",""data"":{""x"":967,""y"":459,""timestamp"":1464},""timestamp"":1464},{""type"":""chart_hover"",""data"":{""x"":967,""y"":457,""timestamp"":1467},""timestamp"":1467},{""type"":""chart_hover"",""data"":{""x"":964,""y"":457,""timestamp"":1488},""timestamp"":1488},{""type"":""chart_hover"",""data"":{""x"":964,""y"":454,""timestamp"":1491},""timestamp"":1491},{""type"":""chart_hover"",""data"":{""x"":962,""y"":454,""timestamp"":1514},""timestamp"":1514},{""type"":""chart_hover"",""data"":{""x"":960,""y"":454,""timestamp"":1533},""timestamp"":1533},{""type"":""chart_hover"",""data"":{""x"":958,""y"":454,""timestamp"":1546},""timestamp"":1546},{""type"":""chart_hover"",""data"":{""x"":955,""y"":454,""timestamp"":1560},""timestamp"":1560},{""type"":""chart_hover"",""data"":{""x"":953,""y"":454,""timestamp"":1576},""timestamp"":1576},{""type"":""chart_hover"",""data"":{""x"":951,""y"":454,""timestamp"":1596},""timestamp"":1596},{""type"":""chart_hover"",""data"":{""x"":951,""y"":452,""timestamp"":1608},""timestamp"":1608},{""type"":""chart_hover"",""data"":{""x"":951,""y"":450,""timestamp"":1625},""timestamp"":1625},{""type"":""chart_hover"",""data"":{""x"":949,""y"":450,""timestamp"":1629},""timestamp"":1629},{""type"":""chart_hover"",""data"":{""x"":949,""y"":448,""timestamp"":1647},""timestamp"":1647},{""type"":""chart_hover"",""data"":{""x"":946,""y"":448,""timestamp"":1676},""timestamp"":1676},{""type"":""chart_hover"",""data"":{""x"":946,""y"":445,""timestamp"":1685},""timestamp"":1685},{""type"":""chart_hover"",""data"":{""x"":944,""y"":445,""timestamp"":1719},""timestamp"":1719},{""type"":""chart_hover"",""data"":{""x"":942,""y"":445,""timestamp"":1735},""timestamp"":1735},{""type"":""chart_hover"",""data"":{""x"":940,""y"":445,""timestamp"":1746},""timestamp"":1746},{""type"":""chart_hover"",""data"":{""x"":940,""y"":447,""timestamp"":1750},""timestamp"":1750},{""type"":""chart_hover"",""data"":{""x"":937,""y"":447,""timestamp"":1757},""timestamp"":1757},{""type"":""chart_hover"",""data"":{""x"":935,""y"":447,""timestamp"":1769},""timestamp"":1769},{""type"":""chart_hover"",""data"":{""x"":935,""y"":449,""timestamp"":1779},""timestamp"":1779},{""type"":""chart_hover"",""data"":{""x"":933,""y"":449,""timestamp"":1781},""timestamp"":1781},{""type"":""chart_hover"",""data"":{""x"":931,""y"":449,""timestamp"":1793},""timestamp"":1793},{""type"":""chart_hover"",""data"":{""x"":931,""y"":451,""timestamp"":1798},""timestamp"":1798},{""type"":""chart_hover"",""data"":{""x"":928,""y"":451,""timestamp"":1801},""timestamp"":1801},{""type"":""chart_hover"",""data"":{""x"":926,""y"":451,""timestamp"":1808},""timestamp"":1808},{""type"":""chart_hover"",""data"":{""x"":926,""y"":454,""timestamp"":1813},""timestamp"":1813},{""type"":""chart_hover"",""data"":{""x"":924,""y"":454,""timestamp"":1815},""timestamp"":1815},{""type"":""chart_hover"",""data"":{""x"":922,""y"":454,""timestamp"":1822},""timestamp"":1822},{""type"":""chart_hover"",""data"":{""x"":919,""y"":454,""timestamp"":1827},""timestamp"":1827},{""type"":""chart_hover"",""data"":{""x"":919,""y"":456,""timestamp"":1828},""timestamp"":1828},{""type"":""chart_hover"",""data"":{""x"":917,""y"":456,""timestamp"":1833},""timestamp"":1833},{""type"":""chart_hover"",""data"":{""x"":915,""y"":456,""timestamp"":1839},""timestamp"":1839},{""type"":""chart_hover"",""data"":{""x"":913,""y"":456,""timestamp"":1846},""timestamp"":1846},{""type"":""chart_hover"",""data"":{""x"":913,""y"":458,""timestamp"":1847},""timestamp"":1847},{""type"":""chart_hover"",""data"":{""x"":910,""y"":458,""timestamp"":1853},""timestamp"":1853},{""type"":""chart_hover"",""data"":{""x"":908,""y"":458,""timestamp"":1861},""timestamp"":1861},{""type"":""chart_hover"",""data"":{""x"":906,""y"":458,""timestamp"":1870},""timestamp"":1870},{""type"":""chart_hover"",""data"":{""x"":906,""y"":460,""timestamp"":1876},""timestamp"":1876},{""type"":""chart_hover"",""data"":{""x"":904,""y"":460,""timestamp"":1879},""timestamp"":1879},{""type"":""chart_hover"",""data"":{""x"":901,""y"":460,""timestamp"":1887},""timestamp"":1887},{""type"":""chart_hover"",""data"":{""x"":899,""y"":460,""timestamp"":1894},""timestamp"":1894},{""type"":""chart_hover"",""data"":{""x"":897,""y"":460,""timestamp"":1901},""timestamp"":1901},{""type"":""chart_hover"",""data"":{""x"":895,""y"":460,""timestamp"":1907},""timestamp"":1907},{""type"":""chart_hover"",""data"":{""x"":892,""y"":460,""timestamp"":1915},""timestamp"":1915},{""type"":""chart_hover"",""data"":{""x"":890,""y"":460,""timestamp"":1920},""timestamp"":1920},{""type"":""chart_hover"",""data"":{""x"":888,""y"":460,""timestamp"":1926},""timestamp"":1926},{""type"":""chart_hover"",""data"":{""x"":886,""y"":460,""timestamp"":1933},""timestamp"":1933},{""type"":""chart_hover"",""data"":{""x"":883,""y"":460,""timestamp"":1939},""timestamp"":1939},{""type"":""chart_hover"",""data"":{""x"":881,""y"":460,""timestamp"":1949},""timestamp"":1949},{""type"":""chart_hover"",""data"":{""x"":881,""y"":459,""timestamp"":1962},""timestamp"":1962},{""type"":""chart_hover"",""data"":{""x"":879,""y"":459,""timestamp"":1964},""timestamp"":1964},{""type"":""chart_hover"",""data"":{""x"":879,""y"":457,""timestamp"":1991},""timestamp"":1991},{""type"":""chart_hover"",""data"":{""x"":877,""y"":457,""timestamp"":2004},""timestamp"":2004},{""type"":""chart_hover"",""data"":{""x"":877,""y"":454,""timestamp"":2008},""timestamp"":2008},{""type"":""chart_hover"",""data"":{""x"":877,""y"":452,""timestamp"":2017},""timestamp"":2017},{""type"":""chart_hover"",""data"":{""x"":877,""y"":450,""timestamp"":2026},""timestamp"":2026},{""type"":""chart_hover"",""data"":{""x"":877,""y"":448,""timestamp"":2033},""timestamp"":2033},{""type"":""chart_hover"",""data"":{""x"":874,""y"":448,""timestamp"":2034},""timestamp"":2034},{""type"":""chart_hover"",""data"":{""x"":874,""y"":445,""timestamp"":2043},""timestamp"":2043},{""type"":""chart_hover"",""data"":{""x"":874,""y"":443,""timestamp"":2050},""timestamp"":2050},{""type"":""chart_hover"",""data"":{""x"":874,""y"":441,""timestamp"":2059},""timestamp"":2059},{""type"":""chart_hover"",""data"":{""x"":874,""y"":439,""timestamp"":2069},""timestamp"":2069},{""type"":""chart_hover"",""data"":{""x"":872,""y"":439,""timestamp"":2074},""timestamp"":2074},{""type"":""chart_hover"",""data"":{""x"":872,""y"":436,""timestamp"":2080},""timestamp"":2080},{""type"":""chart_hover"",""data"":{""x"":872,""y"":434,""timestamp"":2093},""timestamp"":2093},{""type"":""chart_hover"",""data"":{""x"":872,""y"":432,""timestamp"":2112},""timestamp"":2112},{""type"":""chart_hover"",""data"":{""x"":870,""y"":432,""timestamp"":2122},""timestamp"":2122},{""type"":""chart_hover"",""data"":{""x"":870,""y"":430,""timestamp"":2131},""timestamp"":2131},{""type"":""chart_hover"",""data"":{""x"":870,""y"":427,""timestamp"":2156},""timestamp"":2156},{""type"":""chart_hover"",""data"":{""x"":868,""y"":427,""timestamp"":2186},""timestamp"":2186},{""type"":""chart_hover"",""data"":{""x"":865,""y"":427,""timestamp"":2223},""timestamp"":2223},{""type"":""chart_hover"",""data"":{""x"":863,""y"":427,""timestamp"":2246},""timestamp"":2246},{""type"":""chart_hover"",""data"":{""x"":861,""y"":427,""timestamp"":2273},""timestamp"":2273},{""type"":""chart_hover"",""data"":{""x"":859,""y"":427,""timestamp"":2417},""timestamp"":2417},{""type"":""chart_hover"",""data"":{""x"":856,""y"":427,""timestamp"":2889},""timestamp"":2889},{""type"":""chart_hover"",""data"":{""x"":856,""y"":429,""timestamp"":2932},""timestamp"":2932},{""type"":""chart_hover"",""data"":{""x"":854,""y"":429,""timestamp"":2937},""timestamp"":2937},{""type"":""chart_hover"",""data"":{""x"":854,""y"":431,""timestamp"":2977},""timestamp"":2977},{""type"":""chart_hover"",""data"":{""x"":852,""y"":431,""timestamp"":2990},""timestamp"":2990},{""type"":""chart_hover"",""data"":{""x"":852,""y"":433,""timestamp"":3020},""timestamp"":3020},{""type"":""chart_hover"",""data"":{""x"":850,""y"":433,""timestamp"":3057},""timestamp"":3057},{""type"":""chart_hover"",""data"":{""x"":850,""y"":436,""timestamp"":3071},""timestamp"":3071},{""type"":""chart_hover"",""data"":{""x"":847,""y"":436,""timestamp"":3101},""timestamp"":3101},{""type"":""chart_hover"",""data"":{""x"":847,""y"":438,""timestamp"":3123},""timestamp"":3123},{""type"":""chart_hover"",""data"":{""x"":845,""y"":438,""timestamp"":3143},""timestamp"":3143},{""type"":""chart_hover"",""data"":{""x"":845,""y"":440,""timestamp"":3154},""timestamp"":3154},{""type"":""chart_hover"",""data"":{""x"":843,""y"":440,""timestamp"":3176},""timestamp"":3176},{""type"":""chart_hover"",""data"":{""x"":843,""y"":442,""timestamp"":3179},""timestamp"":3179},{""type"":""chart_hover"",""data"":{""x"":843,""y"":445,""timestamp"":3203},""timestamp"":3203},{""type"":""chart_hover"",""data"":{""x"":841,""y"":445,""timestamp"":3205},""timestamp"":3205},{""type"":""chart_hover"",""data"":{""x"":841,""y"":447,""timestamp"":3236},""timestamp"":3236},{""type"":""chart_hover"",""data"":{""x"":838,""y"":447,""timestamp"":3270},""timestamp"":3270},{""type"":""chart_hover"",""data"":{""x"":838,""y"":449,""timestamp"":3295},""timestamp"":3295},{""type"":""chart_hover"",""data"":{""x"":838,""y"":451,""timestamp"":3328},""timestamp"":3328},{""type"":""chart_hover"",""data"":{""x"":838,""y"":454,""timestamp"":3350},""timestamp"":3350},{""type"":""chart_hover"",""data"":{""x"":838,""y"":456,""timestamp"":3365},""timestamp"":3365},{""type"":""chart_hover"",""data"":{""x"":838,""y"":458,""timestamp"":3377},""timestamp"":3377},{""type"":""chart_hover"",""data"":{""x"":838,""y"":460,""timestamp"":3389},""timestamp"":3389},{""type"":""chart_hover"",""data"":{""x"":838,""y"":463,""timestamp"":3400},""timestamp"":3400},{""type"":""chart_hover"",""data"":{""x"":838,""y"":465,""timestamp"":3411},""timestamp"":3411},{""type"":""chart_hover"",""data"":{""x"":838,""y"":467,""timestamp"":3421},""timestamp"":3421},{""type"":""chart_hover"",""data"":{""x"":836,""y"":467,""timestamp"":3422},""timestamp"":3422},{""type"":""chart_hover"",""data"":{""x"":836,""y"":469,""timestamp"":3432},""timestamp"":3432},{""type"":""chart_hover"",""data"":{""x"":836,""y"":472,""timestamp"":3446},""timestamp"":3446},{""type"":""chart_hover"",""data"":{""x"":836,""y"":474,""timestamp"":3473},""timestamp"":3473},{""type"":""chart_hover"",""data"":{""x"":836,""y"":476,""timestamp"":3508},""timestamp"":3508},{""type"":""chart_hover"",""data"":{""x"":836,""y"":478,""timestamp"":3544},""timestamp"":3544},{""type"":""chart_hover"",""data"":{""x"":836,""y"":481,""timestamp"":3564},""timestamp"":3564},{""type"":""chart_hover"",""data"":{""x"":834,""y"":481,""timestamp"":3571},""timestamp"":3571},{""type"":""chart_hover"",""data"":{""x"":834,""y"":483,""timestamp"":3577},""timestamp"":3577},{""type"":""chart_hover"",""data"":{""x"":834,""y"":485,""timestamp"":3588},""timestamp"":3588},{""type"":""chart_hover"",""data"":{""x"":834,""y"":487,""timestamp"":3600},""timestamp"":3600},{""type"":""chart_hover"",""data"":{""x"":834,""y"":490,""timestamp"":3608},""timestamp"":3608},{""type"":""chart_hover"",""data"":{""x"":832,""y"":490,""timestamp"":3614},""timestamp"":3614},{""type"":""chart_hover"",""data"":{""x"":832,""y"":492,""timestamp"":3617},""timestamp"":3617},{""type"":""chart_hover"",""data"":{""x"":832,""y"":494,""timestamp"":3626},""timestamp"":3626},{""type"":""chart_hover"",""data"":{""x"":832,""y"":496,""timestamp"":3633},""timestamp"":3633},{""type"":""chart_hover"",""data"":{""x"":832,""y"":499,""timestamp"":3642},""timestamp"":3642},{""type"":""chart_hover"",""data"":{""x"":829,""y"":499,""timestamp"":3643},""timestamp"":3643},{""type"":""chart_hover"",""data"":{""x"":829,""y"":501,""timestamp"":3648},""timestamp"":3648},{""type"":""chart_hover"",""data"":{""x"":829,""y"":503,""timestamp"":3656},""timestamp"":3656},{""type"":""chart_hover"",""data"":{""x"":829,""y"":505,""timestamp"":3662},""timestamp"":3662},{""type"":""chart_hover"",""data"":{""x"":827,""y"":505,""timestamp"":3668},""timestamp"":3668},{""type"":""chart_hover"",""data"":{""x"":827,""y"":508,""timestamp"":3670},""timestamp"":3670},{""type"":""chart_hover"",""data"":{""x"":827,""y"":510,""timestamp"":3677},""timestamp"":3677},{""type"":""chart_hover"",""data"":{""x"":827,""y"":512,""timestamp"":3684},""timestamp"":3684},{""type"":""chart_hover"",""data"":{""x"":827,""y"":514,""timestamp"":3692},""timestamp"":3692},{""type"":""chart_hover"",""data"":{""x"":825,""y"":514,""timestamp"":3697},""timestamp"":3697},{""type"":""chart_hover"",""data"":{""x"":825,""y"":517,""timestamp"":3699},""timestamp"":3699},{""type"":""chart_hover"",""data"":{""x"":825,""y"":519,""timestamp"":3708},""timestamp"":3708},{""type"":""chart_hover"",""data"":{""x"":825,""y"":521,""timestamp"":3714},""timestamp"":3714},{""type"":""chart_hover"",""data"":{""x"":825,""y"":523,""timestamp"":3724},""timestamp"":3724},{""type"":""chart_hover"",""data"":{""x"":823,""y"":523,""timestamp"":3727},""timestamp"":3727},{""type"":""chart_hover"",""data"":{""x"":823,""y"":526,""timestamp"":3732},""timestamp"":3732},{""type"":""chart_hover"",""data"":{""x"":823,""y"":528,""timestamp"":3742},""timestamp"":3742},{""type"":""chart_hover"",""data"":{""x"":823,""y"":530,""timestamp"":3753},""timestamp"":3753},{""type"":""chart_hover"",""data"":{""x"":823,""y"":532,""timestamp"":3764},""timestamp"":3764},{""type"":""chart_hover"",""data"":{""x"":820,""y"":532,""timestamp"":3765},""timestamp"":3765},{""type"":""chart_hover"",""data"":{""x"":820,""y"":535,""timestamp"":3778},""timestamp"":3778},{""type"":""chart_hover"",""data"":{""x"":820,""y"":537,""timestamp"":3796},""timestamp"":3796},{""type"":""chart_hover"",""data"":{""x"":820,""y"":539,""timestamp"":3826},""timestamp"":3826},{""type"":""chart_hover"",""data"":{""x"":818,""y"":539,""timestamp"":3838},""timestamp"":3838},{""type"":""chart_hover"",""data"":{""x"":818,""y"":541,""timestamp"":3864},""timestamp"":3864},{""type"":""chart_hover"",""data"":{""x"":818,""y"":544,""timestamp"":3898},""timestamp"":3898},{""type"":""chart_hover"",""data"":{""x"":816,""y"":544,""timestamp"":3912},""timestamp"":3912},{""type"":""chart_hover"",""data"":{""x"":816,""y"":546,""timestamp"":3920},""timestamp"":3920},{""type"":""chart_hover"",""data"":{""x"":816,""y"":548,""timestamp"":3939},""timestamp"":3939},{""type"":""chart_hover"",""data"":{""x"":816,""y"":550,""timestamp"":3974},""timestamp"":3974},{""type"":""chart_hover"",""data"":{""x"":814,""y"":550,""timestamp"":3989},""timestamp"":3989},{""type"":""chart_hover"",""data"":{""x"":814,""y"":553,""timestamp"":4481},""timestamp"":4481},{""type"":""chart_hover"",""data"":{""x"":811,""y"":553,""timestamp"":4506},""timestamp"":4506},{""type"":""chart_hover"",""data"":{""x"":811,""y"":555,""timestamp"":4523},""timestamp"":4523},{""type"":""chart_hover"",""data"":{""x"":809,""y"":555,""timestamp"":4770},""timestamp"":4770},{""type"":""chart_hover"",""data"":{""x"":809,""y"":557,""timestamp"":4796},""timestamp"":4796},{""type"":""chart_hover"",""data"":{""x"":807,""y"":557,""timestamp"":5139},""timestamp"":5139},{""type"":""chart_hover"",""data"":{""x"":807,""y"":559,""timestamp"":5153},""timestamp"":5153},{""type"":""chart_hover"",""data"":{""x"":807,""y"":562,""timestamp"":5992},""timestamp"":5992},{""type"":""chart_hover"",""data"":{""x"":807,""y"":564,""timestamp"":6035},""timestamp"":6035},{""type"":""chart_hover"",""data"":{""x"":807,""y"":566,""timestamp"":6765},""timestamp"":6765},{""type"":""chart_hover"",""data"":{""x"":805,""y"":566,""timestamp"":6819},""timestamp"":6819},{""type"":""chart_hover"",""data"":{""x"":805,""y"":568,""timestamp"":13657},""timestamp"":13657},{""type"":""chart_hover"",""data"":{""x"":802,""y"":568,""timestamp"":13876},""timestamp"":13876},{""type"":""chart_hover"",""data"":{""x"":802,""y"":571,""timestamp"":13878},""timestamp"":13878},{""type"":""chart_hover"",""data"":{""x"":802,""y"":573,""timestamp"":13897},""timestamp"":13897},{""type"":""chart_hover"",""data"":{""x"":802,""y"":575,""timestamp"":13905},""timestamp"":13905},{""type"":""chart_hover"",""data"":{""x"":800,""y"":575,""timestamp"":13911},""timestamp"":13911},{""type"":""chart_hover"",""data"":{""x"":800,""y"":577,""timestamp"":13914},""timestamp"":13914},{""type"":""chart_hover"",""data"":{""x"":800,""y"":580,""timestamp"":13920},""timestamp"":13920},{""type"":""chart_hover"",""data"":{""x"":800,""y"":582,""timestamp"":13924},""timestamp"":13924},{""type"":""chart_hover"",""data"":{""x"":798,""y"":584,""timestamp"":13931},""timestamp"":13931},{""type"":""chart_hover"",""data"":{""x"":798,""y"":586,""timestamp"":13935},""timestamp"":13935},{""type"":""chart_hover"",""data"":{""x"":798,""y"":589,""timestamp"":13940},""timestamp"":13940},{""type"":""chart_hover"",""data"":{""x"":798,""y"":591,""timestamp"":13946},""timestamp"":13946},{""type"":""chart_hover"",""data"":{""x"":796,""y"":591,""timestamp"":13948},""timestamp"":13948},{""type"":""chart_hover"",""data"":{""x"":796,""y"":593,""timestamp"":13950},""timestamp"":13950},{""type"":""chart_hover"",""data"":{""x"":796,""y"":595,""timestamp"":13954},""timestamp"":13954},{""type"":""chart_hover"",""data"":{""x"":796,""y"":598,""timestamp"":13960},""timestamp"":13960},{""type"":""chart_leave"",""data"":{""timestamp"":13964},""timestamp"":13964},{""type"":""chart_enter"",""data"":{""timestamp"":17139},""timestamp"":17139},{""type"":""chart_hover"",""data"":{""x"":685,""y"":598,""timestamp"":17139},""timestamp"":17139},{""type"":""chart_hover"",""data"":{""x"":685,""y"":596,""timestamp"":17321},""timestamp"":17321},{""type"":""chart_hover"",""data"":{""x"":685,""y"":594,""timestamp"":17337},""timestamp"":17337},{""type"":""chart_hover"",""data"":{""x"":685,""y"":589,""timestamp"":17352},""timestamp"":17352},{""type"":""chart_hover"",""data"":{""x"":687,""y"":580,""timestamp"":17366},""timestamp"":17366},{""type"":""chart_hover"",""data"":{""x"":687,""y"":567,""timestamp"":17383},""timestamp"":17383},{""type"":""chart_hover"",""data"":{""x"":689,""y"":556,""timestamp"":17398},""timestamp"":17398},{""type"":""chart_hover"",""data"":{""x"":691,""y"":553,""timestamp"":17399},""timestamp"":17399},{""type"":""chart_hover"",""data"":{""x"":698,""y"":535,""timestamp"":17416},""timestamp"":17416},{""type"":""chart_hover"",""data"":{""x"":707,""y"":513,""timestamp"":17430},""timestamp"":17430},{""type"":""chart_hover"",""data"":{""x"":709,""y"":508,""timestamp"":17432},""timestamp"":17432},{""type"":""chart_hover"",""data"":{""x"":725,""y"":472,""timestamp"":17448},""timestamp"":17448},{""type"":""chart_hover"",""data"":{""x"":745,""y"":441,""timestamp"":17462},""timestamp"":17462},{""type"":""chart_hover"",""data"":{""x"":745,""y"":436,""timestamp"":17462},""timestamp"":17462},{""type"":""chart_hover"",""data"":{""x"":766,""y"":405,""timestamp"":17477},""timestamp"":17477},{""type"":""chart_hover"",""data"":{""x"":766,""y"":403,""timestamp"":17477},""timestamp"":17477},{""type"":""chart_hover"",""data"":{""x"":784,""y"":369,""timestamp"":17492},""timestamp"":17492},{""type"":""chart_hover"",""data"":{""x"":784,""y"":367,""timestamp"":17492},""timestamp"":17492},{""type"":""chart_hover"",""data"":{""x"":802,""y"":333,""timestamp"":17508},""timestamp"":17508},{""type"":""chart_hover"",""data"":{""x"":802,""y"":331,""timestamp"":17508},""timestamp"":17508},{""type"":""chart_hover"",""data"":{""x"":815,""y"":297,""timestamp"":17524},""timestamp"":17524},{""type"":""chart_hover"",""data"":{""x"":815,""y"":295,""timestamp"":17524},""timestamp"":17524},{""type"":""chart_hover"",""data"":{""x"":826,""y"":265,""timestamp"":17540},""timestamp"":17540},{""type"":""chart_hover"",""data"":{""x"":829,""y"":263,""timestamp"":17540},""timestamp"":17540},{""type"":""chart_hover"",""data"":{""x"":829,""y"":261,""timestamp"":17542},""timestamp"":17542},{""type"":""chart_hover"",""data"":{""x"":831,""y"":259,""timestamp"":17543},""timestamp"":17543},{""type"":""chart_hover"",""data"":{""x"":831,""y"":256,""timestamp"":17544},""timestamp"":17544},{""type"":""chart_hover"",""data"":{""x"":831,""y"":254,""timestamp"":17545},""timestamp"":17545},{""type"":""chart_hover"",""data"":{""x"":833,""y"":254,""timestamp"":17546},""timestamp"":17546},{""type"":""chart_hover"",""data"":{""x"":833,""y"":252,""timestamp"":17547},""timestamp"":17547},{""type"":""chart_hover"",""data"":{""x"":833,""y"":250,""timestamp"":17548},""timestamp"":17548},{""type"":""chart_hover"",""data"":{""x"":835,""y"":247,""timestamp"":17549},""timestamp"":17549},{""type"":""chart_hover"",""data"":{""x"":835,""y"":245,""timestamp"":17551},""timestamp"":17551},{""type"":""chart_hover"",""data"":{""x"":838,""y"":243,""timestamp"":17552},""timestamp"":17552},{""type"":""chart_hover"",""data"":{""x"":838,""y"":241,""timestamp"":17553},""timestamp"":17553},{""type"":""chart_hover"",""data"":{""x"":840,""y"":238,""timestamp"":17555},""timestamp"":17555},{""type"":""chart_hover"",""data"":{""x"":840,""y"":236,""timestamp"":17556},""timestamp"":17556},{""type"":""chart_hover"",""data"":{""x"":840,""y"":234,""timestamp"":17557},""timestamp"":17557},{""type"":""chart_hover"",""data"":{""x"":842,""y"":234,""timestamp"":17558},""timestamp"":17558},{""type"":""chart_hover"",""data"":{""x"":842,""y"":232,""timestamp"":17559},""timestamp"":17559},{""type"":""chart_hover"",""data"":{""x"":844,""y"":229,""timestamp"":17560},""timestamp"":17560},{""type"":""chart_hover"",""data"":{""x"":844,""y"":227,""timestamp"":17562},""timestamp"":17562},{""type"":""chart_hover"",""data"":{""x"":847,""y"":225,""timestamp"":17563},""timestamp"":17563},{""type"":""chart_hover"",""data"":{""x"":847,""y"":223,""timestamp"":17565},""timestamp"":17565},{""type"":""chart_hover"",""data"":{""x"":849,""y"":220,""timestamp"":17566},""timestamp"":17566},{""type"":""chart_hover"",""data"":{""x"":849,""y"":218,""timestamp"":17568},""timestamp"":17568},{""type"":""chart_hover"",""data"":{""x"":851,""y"":216,""timestamp"":17569},""timestamp"":17569},{""type"":""chart_hover"",""data"":{""x"":851,""y"":214,""timestamp"":17571},""timestamp"":17571},{""type"":""chart_hover"",""data"":{""x"":853,""y"":211,""timestamp"":17572},""timestamp"":17572},{""type"":""chart_hover"",""data"":{""x"":853,""y"":209,""timestamp"":17574},""timestamp"":17574},{""type"":""chart_hover"",""data"":{""x"":856,""y"":209,""timestamp"":17575},""timestamp"":17575},{""type"":""chart_hover"",""data"":{""x"":856,""y"":207,""timestamp"":17576},""timestamp"":17576},{""type"":""chart_hover"",""data"":{""x"":856,""y"":205,""timestamp"":17577},""timestamp"":17577},{""type"":""chart_hover"",""data"":{""x"":858,""y"":205,""timestamp"":17578},""timestamp"":17578},{""type"":""chart_hover"",""data"":{""x"":858,""y"":202,""timestamp"":17579},""timestamp"":17579},{""type"":""chart_hover"",""data"":{""x"":860,""y"":200,""timestamp"":17581},""timestamp"":17581},{""type"":""chart_hover"",""data"":{""x"":860,""y"":198,""timestamp"":17582},""timestamp"":17582},{""type"":""chart_hover"",""data"":{""x"":862,""y"":198,""timestamp"":17583},""timestamp"":17583},{""type"":""chart_hover"",""data"":{""x"":862,""y"":196,""timestamp"":17584},""timestamp"":17584},{""type"":""chart_hover"",""data"":{""x"":865,""y"":193,""timestamp"":17586},""timestamp"":17586},{""type"":""chart_hover"",""data"":{""x"":865,""y"":191,""timestamp"":17588},""timestamp"":17588},{""type"":""chart_hover"",""data"":{""x"":867,""y"":191,""timestamp"":17589},""timestamp"":17589},{""type"":""chart_hover"",""data"":{""x"":867,""y"":189,""timestamp"":17590},""timestamp"":17590},{""type"":""chart_hover"",""data"":{""x"":869,""y"":187,""timestamp"":17592},""timestamp"":17592},{""type"":""chart_hover"",""data"":{""x"":869,""y"":184,""timestamp"":17594},""timestamp"":17594},{""type"":""chart_hover"",""data"":{""x"":871,""y"":184,""timestamp"":17595},""timestamp"":17595},{""type"":""chart_hover"",""data"":{""x"":871,""y"":182,""timestamp"":17596},""timestamp"":17596},{""type"":""chart_hover"",""data"":{""x"":874,""y"":180,""timestamp"":17598},""timestamp"":17598},{""type"":""chart_hover"",""data"":{""x"":874,""y"":178,""timestamp"":17600},""timestamp"":17600},{""type"":""chart_hover"",""data"":{""x"":876,""y"":175,""timestamp"":17602},""timestamp"":17602},{""type"":""chart_hover"",""data"":{""x"":878,""y"":173,""timestamp"":17605},""timestamp"":17605},{""type"":""chart_hover"",""data"":{""x"":878,""y"":171,""timestamp"":17607},""timestamp"":17607},{""type"":""chart_hover"",""data"":{""x"":880,""y"":171,""timestamp"":17609},""timestamp"":17609},{""type"":""chart_hover"",""data"":{""x"":880,""y"":169,""timestamp"":17610},""timestamp"":17610},{""type"":""chart_hover"",""data"":{""x"":883,""y"":169,""timestamp"":17612},""timestamp"":17612},{""type"":""chart_hover"",""data"":{""x"":883,""y"":166,""timestamp"":17613},""timestamp"":17613},{""type"":""chart_hover"",""data"":{""x"":885,""y"":164,""timestamp"":17617},""timestamp"":17617},{""type"":""chart_hover"",""data"":{""x"":887,""y"":162,""timestamp"":17621},""timestamp"":17621},{""type"":""chart_hover"",""data"":{""x"":887,""y"":160,""timestamp"":17625},""timestamp"":17625},{""type"":""chart_hover"",""data"":{""x"":889,""y"":160,""timestamp"":17627},""timestamp"":17627},{""type"":""chart_hover"",""data"":{""x"":889,""y"":157,""timestamp"":17632},""timestamp"":17632},{""type"":""chart_hover"",""data"":{""x"":892,""y"":157,""timestamp"":17633},""timestamp"":17633},{""type"":""chart_hover"",""data"":{""x"":894,""y"":157,""timestamp"":17641},""timestamp"":17641},{""type"":""chart_hover"",""data"":{""x"":894,""y"":155,""timestamp"":17648},""timestamp"":17648},{""type"":""chart_hover"",""data"":{""x"":896,""y"":155,""timestamp"":17649},""timestamp"":17649},{""type"":""chart_hover"",""data"":{""x"":898,""y"":155,""timestamp"":17659},""timestamp"":17659},{""type"":""chart_hover"",""data"":{""x"":901,""y"":155,""timestamp"":17670},""timestamp"":17670},{""type"":""chart_hover"",""data"":{""x"":901,""y"":157,""timestamp"":17678},""timestamp"":17678},{""type"":""chart_hover"",""data"":{""x"":903,""y"":157,""timestamp"":17679},""timestamp"":17679},{""type"":""chart_hover"",""data"":{""x"":903,""y"":159,""timestamp"":17684},""timestamp"":17684},{""type"":""chart_hover"",""data"":{""x"":905,""y"":159,""timestamp"":17688},""timestamp"":17688},{""type"":""chart_hover"",""data"":{""x"":905,""y"":161,""timestamp"":17690},""timestamp"":17690},{""type"":""chart_hover"",""data"":{""x"":907,""y"":161,""timestamp"":17694},""timestamp"":17694},{""type"":""chart_hover"",""data"":{""x"":907,""y"":163,""timestamp"":17694},""timestamp"":17694},{""type"":""chart_hover"",""data"":{""x"":907,""y"":166,""timestamp"":17697},""timestamp"":17697},{""type"":""chart_hover"",""data"":{""x"":910,""y"":166,""timestamp"":17698},""timestamp"":17698},{""type"":""chart_hover"",""data"":{""x"":910,""y"":168,""timestamp"":17701},""timestamp"":17701},{""type"":""chart_hover"",""data"":{""x"":912,""y"":168,""timestamp"":17703},""timestamp"":17703},{""type"":""chart_hover"",""data"":{""x"":912,""y"":170,""timestamp"":17705},""timestamp"":17705},{""type"":""chart_hover"",""data"":{""x"":914,""y"":170,""timestamp"":17707},""timestamp"":17707},{""type"":""chart_hover"",""data"":{""x"":914,""y"":172,""timestamp"":17708},""timestamp"":17708},{""type"":""chart_hover"",""data"":{""x"":916,""y"":172,""timestamp"":17710},""timestamp"":17710},{""type"":""chart_hover"",""data"":{""x"":916,""y"":175,""timestamp"":17710},""timestamp"":17710},{""type"":""chart_hover"",""data"":{""x"":919,""y"":177,""timestamp"":17712},""timestamp"":17712},{""type"":""chart_hover"",""data"":{""x"":921,""y"":179,""timestamp"":17715},""timestamp"":17715},{""type"":""chart_hover"",""data"":{""x"":921,""y"":181,""timestamp"":17717},""timestamp"":17717},{""type"":""chart_hover"",""data"":{""x"":923,""y"":181,""timestamp"":17718},""timestamp"":17718},{""type"":""chart_hover"",""data"":{""x"":923,""y"":184,""timestamp"":17721},""timestamp"":17721},{""type"":""chart_hover"",""data"":{""x"":925,""y"":184,""timestamp"":17722},""timestamp"":17722},{""type"":""chart_hover"",""data"":{""x"":925,""y"":186,""timestamp"":17723},""timestamp"":17723},{""type"":""chart_hover"",""data"":{""x"":928,""y"":186,""timestamp"":17724},""timestamp"":17724},{""type"":""chart_hover"",""data"":{""x"":928,""y"":188,""timestamp"":17725},""timestamp"":17725},{""type"":""chart_hover"",""data"":{""x"":930,""y"":190,""timestamp"":17727},""timestamp"":17727},{""type"":""chart_hover"",""data"":{""x"":932,""y"":193,""timestamp"":17728},""timestamp"":17728},{""type"":""chart_hover"",""data"":{""x"":934,""y"":195,""timestamp"":17730},""timestamp"":17730},{""type"":""chart_hover"",""data"":{""x"":934,""y"":197,""timestamp"":17732},""timestamp"":17732},{""type"":""chart_hover"",""data"":{""x"":937,""y"":197,""timestamp"":17733},""timestamp"":17733},{""type"":""chart_hover"",""data"":{""x"":937,""y"":199,""timestamp"":17734},""timestamp"":17734},{""type"":""chart_hover"",""data"":{""x"":939,""y"":199,""timestamp"":17736},""timestamp"":17736},{""type"":""chart_hover"",""data"":{""x"":939,""y"":202,""timestamp"":17737},""timestamp"":17737},{""type"":""chart_hover"",""data"":{""x"":941,""y"":204,""timestamp"":17738},""timestamp"":17738},{""type"":""chart_hover"",""data"":{""x"":943,""y"":206,""timestamp"":17740},""timestamp"":17740},{""type"":""chart_hover"",""data"":{""x"":946,""y"":208,""timestamp"":17742},""timestamp"":17742},{""type"":""chart_hover"",""data"":{""x"":946,""y"":211,""timestamp"":17743},""timestamp"":17743},{""type"":""chart_hover"",""data"":{""x"":948,""y"":211,""timestamp"":17743},""timestamp"":17743},{""type"":""chart_hover"",""data"":{""x"":948,""y"":213,""timestamp"":17744},""timestamp"":17744},{""type"":""chart_hover"",""data"":{""x"":950,""y"":215,""timestamp"":17745},""timestamp"":17745},{""type"":""chart_hover"",""data"":{""x"":952,""y"":217,""timestamp"":17747},""timestamp"":17747},{""type"":""chart_hover"",""data"":{""x"":952,""y"":220,""timestamp"":17748},""timestamp"":17748},{""type"":""chart_hover"",""data"":{""x"":955,""y"":220,""timestamp"":17749},""timestamp"":17749},{""type"":""chart_hover"",""data"":{""x"":955,""y"":222,""timestamp"":17750},""timestamp"":17750},{""type"":""chart_hover"",""data"":{""x"":957,""y"":224,""timestamp"":17752},""timestamp"":17752},{""type"":""chart_hover"",""data"":{""x"":957,""y"":226,""timestamp"":17753},""timestamp"":17753},{""type"":""chart_hover"",""data"":{""x"":959,""y"":226,""timestamp"":17754},""timestamp"":17754},{""type"":""chart_hover"",""data"":{""x"":959,""y"":229,""timestamp"":17755},""timestamp"":17755},{""type"":""chart_hover"",""data"":{""x"":961,""y"":231,""timestamp"":17756},""timestamp"":17756},{""type"":""chart_hover"",""data"":{""x"":964,""y"":233,""timestamp"":17758},""timestamp"":17758},{""type"":""chart_hover"",""data"":{""x"":966,""y"":235,""timestamp"":17759},""timestamp"":17759},{""type"":""chart_hover"",""data"":{""x"":966,""y"":238,""timestamp"":17760},""timestamp"":17760},{""type"":""chart_hover"",""data"":{""x"":968,""y"":238,""timestamp"":17760},""timestamp"":17760},{""type"":""chart_hover"",""data"":{""x"":968,""y"":240,""timestamp"":17761},""timestamp"":17761},{""type"":""chart_hover"",""data"":{""x"":970,""y"":242,""timestamp"":17762},""timestamp"":17762},{""type"":""chart_hover"",""data"":{""x"":970,""y"":244,""timestamp"":17763},""timestamp"":17763},{""type"":""chart_hover"",""data"":{""x"":973,""y"":247,""timestamp"":17764},""timestamp"":17764},{""type"":""chart_hover"",""data"":{""x"":975,""y"":249,""timestamp"":17766},""timestamp"":17766},{""type"":""chart_hover"",""data"":{""x"":977,""y"":251,""timestamp"":17767},""timestamp"":17767},{""type"":""chart_hover"",""data"":{""x"":977,""y"":253,""timestamp"":17769},""timestamp"":17769},{""type"":""chart_hover"",""data"":{""x"":979,""y"":256,""timestamp"":17770},""timestamp"":17770},{""type"":""chart_hover"",""data"":{""x"":979,""y"":258,""timestamp"":17771},""timestamp"":17771},{""type"":""chart_hover"",""data"":{""x"":982,""y"":260,""timestamp"":17771},""timestamp"":17771},{""type"":""chart_hover"",""data"":{""x"":984,""y"":260,""timestamp"":17772},""timestamp"":17772},{""type"":""chart_hover"",""data"":{""x"":984,""y"":262,""timestamp"":17773},""timestamp"":17773},{""type"":""chart_hover"",""data"":{""x"":986,""y"":265,""timestamp"":17775},""timestamp"":17775},{""type"":""chart_hover"",""data"":{""x"":986,""y"":267,""timestamp"":17776},""timestamp"":17776},{""type"":""chart_hover"",""data"":{""x"":988,""y"":269,""timestamp"":17776},""timestamp"":17776},{""type"":""chart_hover"",""data"":{""x"":991,""y"":271,""timestamp"":17777},""timestamp"":17777},{""type"":""chart_hover"",""data"":{""x"":991,""y"":274,""timestamp"":17778},""timestamp"":17778},{""type"":""chart_hover"",""data"":{""x"":993,""y"":276,""timestamp"":17779},""timestamp"":17779},{""type"":""chart_hover"",""data"":{""x"":995,""y"":278,""timestamp"":17780},""timestamp"":17780},{""type"":""chart_hover"",""data"":{""x"":995,""y"":280,""timestamp"":17781},""timestamp"":17781},{""type"":""chart_hover"",""data"":{""x"":997,""y"":283,""timestamp"":17782},""timestamp"":17782},{""type"":""chart_hover"",""data"":{""x"":1000,""y"":285,""timestamp"":17783},""timestamp"":17783},{""type"":""chart_hover"",""data"":{""x"":1002,""y"":287,""timestamp"":17785},""timestamp"":17785},{""type"":""chart_hover"",""data"":{""x"":1002,""y"":289,""timestamp"":17786},""timestamp"":17786},{""type"":""chart_hover"",""data"":{""x"":1004,""y"":292,""timestamp"":17787},""timestamp"":17787},{""type"":""chart_hover"",""data"":{""x"":1006,""y"":294,""timestamp"":17787},""timestamp"":17787},{""type"":""chart_hover"",""data"":{""x"":1006,""y"":296,""timestamp"":17788},""timestamp"":17788},{""type"":""chart_hover"",""data"":{""x"":1009,""y"":298,""timestamp"":17789},""timestamp"":17789},{""type"":""chart_hover"",""data"":{""x"":1011,""y"":301,""timestamp"":17791},""timestamp"":17791},{""type"":""chart_hover"",""data"":{""x"":1013,""y"":303,""timestamp"":17792},""timestamp"":17792},{""type"":""chart_hover"",""data"":{""x"":1013,""y"":305,""timestamp"":17792},""timestamp"":17792},{""type"":""chart_hover"",""data"":{""x"":1015,""y"":307,""timestamp"":17793},""timestamp"":17793},{""type"":""chart_hover"",""data"":{""x"":1018,""y"":310,""timestamp"":17794},""timestamp"":17794},{""type"":""chart_hover"",""data"":{""x"":1020,""y"":312,""timestamp"":17795},""timestamp"":17795},{""type"":""chart_hover"",""data"":{""x"":1020,""y"":314,""timestamp"":17796},""timestamp"":17796},{""type"":""chart_hover"",""data"":{""x"":1022,""y"":319,""timestamp"":17797},""timestamp"":17797},{""type"":""chart_hover"",""data"":{""x"":1024,""y"":321,""timestamp"":17798},""timestamp"":17798},{""type"":""chart_hover"",""data"":{""x"":1027,""y"":323,""timestamp"":17799},""timestamp"":17799},{""type"":""chart_hover"",""data"":{""x"":1029,""y"":325,""timestamp"":17800},""timestamp"":17800},{""type"":""chart_hover"",""data"":{""x"":1029,""y"":328,""timestamp"":17802},""timestamp"":17802},{""type"":""chart_hover"",""data"":{""x"":1031,""y"":330,""timestamp"":17803},""timestamp"":17803},{""type"":""chart_hover"",""data"":{""x"":1033,""y"":332,""timestamp"":17803},""timestamp"":17803},{""type"":""chart_hover"",""data"":{""x"":1036,""y"":334,""timestamp"":17804},""timestamp"":17804},{""type"":""chart_hover"",""data"":{""x"":1036,""y"":337,""timestamp"":17805},""timestamp"":17805},{""type"":""chart_hover"",""data"":{""x"":1038,""y"":341,""timestamp"":17807},""timestamp"":17807},{""type"":""chart_hover"",""data"":{""x"":1040,""y"":343,""timestamp"":17808},""timestamp"":17808},{""type"":""chart_hover"",""data"":{""x"":1042,""y"":346,""timestamp"":17809},""timestamp"":17809},{""type"":""chart_hover"",""data"":{""x"":1042,""y"":348,""timestamp"":17809},""timestamp"":17809},{""type"":""chart_hover"",""data"":{""x"":1045,""y"":350,""timestamp"":17810},""timestamp"":17810},{""type"":""chart_hover"",""data"":{""x"":1047,""y"":352,""timestamp"":17811},""timestamp"":17811},{""type"":""chart_hover"",""data"":{""x"":1049,""y"":357,""timestamp"":17812},""timestamp"":17812},{""type"":""chart_hover"",""data"":{""x"":1049,""y"":359,""timestamp"":17813},""timestamp"":17813},{""type"":""chart_hover"",""data"":{""x"":1051,""y"":361,""timestamp"":17814},""timestamp"":17814},{""type"":""chart_hover"",""data"":{""x"":1054,""y"":364,""timestamp"":17815},""timestamp"":17815},{""type"":""chart_hover"",""data"":{""x"":1054,""y"":366,""timestamp"":17816},""timestamp"":17816},{""type"":""chart_hover"",""data"":{""x"":1056,""y"":370,""timestamp"":17818},""timestamp"":17818},{""type"":""chart_hover"",""data"":{""x"":1058,""y"":373,""timestamp"":17819},""timestamp"":17819},{""type"":""chart_hover"",""data"":{""x"":1058,""y"":375,""timestamp"":17819},""timestamp"":17819},{""type"":""chart_hover"",""data"":{""x"":1060,""y"":379,""timestamp"":17820},""timestamp"":17820},{""type"":""chart_hover"",""data"":{""x"":1060,""y"":382,""timestamp"":17821},""timestamp"":17821},{""type"":""chart_hover"",""data"":{""x"":1063,""y"":384,""timestamp"":17823},""timestamp"":17823},{""type"":""chart_hover"",""data"":{""x"":1065,""y"":386,""timestamp"":17824},""timestamp"":17824},{""type"":""chart_hover"",""data"":{""x"":1065,""y"":391,""timestamp"":17824},""timestamp"":17824},{""type"":""chart_hover"",""data"":{""x"":1067,""y"":393,""timestamp"":17825},""timestamp"":17825},{""type"":""chart_hover"",""data"":{""x"":1067,""y"":395,""timestamp"":17826},""timestamp"":17826},{""type"":""chart_hover"",""data"":{""x"":1069,""y"":400,""timestamp"":17827},""timestamp"":17827},{""type"":""chart_hover"",""data"":{""x"":1072,""y"":402,""timestamp"":17828},""timestamp"":17828},{""type"":""chart_hover"",""data"":{""x"":1072,""y"":404,""timestamp"":17829},""timestamp"":17829},{""type"":""chart_hover"",""data"":{""x"":1074,""y"":406,""timestamp"":17830},""timestamp"":17830},{""type"":""chart_hover"",""data"":{""x"":1074,""y"":411,""timestamp"":17831},""timestamp"":17831},{""type"":""chart_hover"",""data"":{""x"":1076,""y"":413,""timestamp"":17832},""timestamp"":17832},{""type"":""chart_hover"",""data"":{""x"":1076,""y"":415,""timestamp"":17834},""timestamp"":17834},{""type"":""chart_hover"",""data"":{""x"":1078,""y"":420,""timestamp"":17835},""timestamp"":17835},{""type"":""chart_hover"",""data"":{""x"":1078,""y"":422,""timestamp"":17835},""timestamp"":17835},{""type"":""chart_hover"",""data"":{""x"":1078,""y"":424,""timestamp"":17836},""timestamp"":17836},{""type"":""chart_hover"",""data"":{""x"":1081,""y"":429,""timestamp"":17837},""timestamp"":17837},{""type"":""chart_hover"",""data"":{""x"":1081,""y"":431,""timestamp"":17839},""timestamp"":17839},{""type"":""chart_hover"",""data"":{""x"":1083,""y"":436,""timestamp"":17840},""timestamp"":17840},{""type"":""chart_hover"",""data"":{""x"":1083,""y"":438,""timestamp"":17840},""timestamp"":17840},{""type"":""chart_hover"",""data"":{""x"":1085,""y"":440,""timestamp"":17841},""timestamp"":17841},{""type"":""chart_hover"",""data"":{""x"":1085,""y"":445,""timestamp"":17842},""timestamp"":17842},{""type"":""chart_hover"",""data"":{""x"":1085,""y"":447,""timestamp"":17843},""timestamp"":17843},{""type"":""chart_hover"",""data"":{""x"":1087,""y"":451,""timestamp"":17844},""timestamp"":17844},{""type"":""chart_hover"",""data"":{""x"":1087,""y"":454,""timestamp"":17845},""timestamp"":17845},{""type"":""chart_hover"",""data"":{""x"":1087,""y"":456,""timestamp"":17846},""timestamp"":17846},{""type"":""chart_hover"",""data"":{""x"":1090,""y"":460,""timestamp"":17847},""timestamp"":17847},{""type"":""chart_hover"",""data"":{""x"":1090,""y"":463,""timestamp"":17848},""timestamp"":17848},{""type"":""chart_hover"",""data"":{""x"":1090,""y"":467,""timestamp"":17849},""timestamp"":17849},{""type"":""chart_hover"",""data"":{""x"":1090,""y"":469,""timestamp"":17851},""timestamp"":17851},{""type"":""chart_hover"",""data"":{""x"":1092,""y"":472,""timestamp"":17852},""timestamp"":17852},{""type"":""chart_hover"",""data"":{""x"":1092,""y"":476,""timestamp"":17853},""timestamp"":17853},{""type"":""chart_hover"",""data"":{""x"":1092,""y"":478,""timestamp"":17853},""timestamp"":17853},{""type"":""chart_hover"",""data"":{""x"":1092,""y"":483,""timestamp"":17855},""timestamp"":17855},{""type"":""chart_hover"",""data"":{""x"":1092,""y"":485,""timestamp"":17856},""timestamp"":17856},{""type"":""chart_hover"",""data"":{""x"":1094,""y"":487,""timestamp"":17856},""timestamp"":17856},{""type"":""chart_hover"",""data"":{""x"":1094,""y"":492,""timestamp"":17857},""timestamp"":17857},{""type"":""chart_hover"",""data"":{""x"":1094,""y"":494,""timestamp"":17858},""timestamp"":17858},{""type"":""chart_hover"",""data"":{""x"":1094,""y"":499,""timestamp"":17859},""timestamp"":17859},{""type"":""chart_hover"",""data"":{""x"":1094,""y"":501,""timestamp"":17860},""timestamp"":17860},{""type"":""chart_hover"",""data"":{""x"":1094,""y"":503,""timestamp"":17861},""timestamp"":17861},{""type"":""chart_hover"",""data"":{""x"":1096,""y"":508,""timestamp"":17862},""timestamp"":17862},{""type"":""chart_hover"",""data"":{""x"":1096,""y"":510,""timestamp"":17863},""timestamp"":17863},{""type"":""chart_hover"",""data"":{""x"":1096,""y"":514,""timestamp"":17864},""timestamp"":17864},{""type"":""chart_hover"",""data"":{""x"":1096,""y"":517,""timestamp"":17865},""timestamp"":17865},{""type"":""chart_hover"",""data"":{""x"":1096,""y"":521,""timestamp"":17867},""timestamp"":17867},{""type"":""chart_hover"",""data"":{""x"":1096,""y"":523,""timestamp"":17867},""timestamp"":17867},{""type"":""chart_hover"",""data"":{""x"":1096,""y"":528,""timestamp"":17868},""timestamp"":17868},{""type"":""chart_hover"",""data"":{""x"":1096,""y"":530,""timestamp"":17869},""timestamp"":17869},{""type"":""chart_hover"",""data"":{""x"":1096,""y"":532,""timestamp"":17871},""timestamp"":17871},{""type"":""chart_hover"",""data"":{""x"":1096,""y"":537,""timestamp"":17872},""timestamp"":17872},{""type"":""chart_hover"",""data"":{""x"":1096,""y"":539,""timestamp"":17873},""timestamp"":17873},{""type"":""chart_hover"",""data"":{""x"":1096,""y"":544,""timestamp"":17873},""timestamp"":17873},{""type"":""chart_hover"",""data"":{""x"":1096,""y"":546,""timestamp"":17874},""timestamp"":17874},{""type"":""chart_hover"",""data"":{""x"":1096,""y"":550,""timestamp"":17875},""timestamp"":17875},{""type"":""chart_hover"",""data"":{""x"":1096,""y"":553,""timestamp"":17876},""timestamp"":17876},{""type"":""chart_hover"",""data"":{""x"":1099,""y"":557,""timestamp"":17877},""timestamp"":17877},{""type"":""chart_hover"",""data"":{""x"":1099,""y"":559,""timestamp"":17878},""timestamp"":17878},{""type"":""chart_hover"",""data"":{""x"":1099,""y"":562,""timestamp"":17879},""timestamp"":17879},{""type"":""chart_hover"",""data"":{""x"":1099,""y"":566,""timestamp"":17880},""timestamp"":17880},{""type"":""chart_hover"",""data"":{""x"":1099,""y"":568,""timestamp"":17881},""timestamp"":17881},{""type"":""chart_hover"",""data"":{""x"":1099,""y"":573,""timestamp"":17883},""timestamp"":17883},{""type"":""chart_hover"",""data"":{""x"":1099,""y"":575,""timestamp"":17883},""timestamp"":17883},{""type"":""chart_hover"",""data"":{""x"":1099,""y"":577,""timestamp"":17884},""timestamp"":17884},{""type"":""chart_hover"",""data"":{""x"":1099,""y"":582,""timestamp"":17885},""timestamp"":17885},{""type"":""chart_hover"",""data"":{""x"":1099,""y"":584,""timestamp"":17887},""timestamp"":17887},{""type"":""chart_hover"",""data"":{""x"":1099,""y"":589,""timestamp"":17888},""timestamp"":17888},{""type"":""chart_hover"",""data"":{""x"":1099,""y"":591,""timestamp"":17888},""timestamp"":17888},{""type"":""chart_hover"",""data"":{""x"":1099,""y"":593,""timestamp"":17889},""timestamp"":17889},{""type"":""chart_hover"",""data"":{""x"":1099,""y"":598,""timestamp"":17890},""timestamp"":17890},{""type"":""chart_leave"",""data"":{""timestamp"":17891},""timestamp"":17891},{""type"":""chart_enter"",""data"":{""timestamp"":18210},""timestamp"":18210},{""type"":""chart_hover"",""data"":{""x"":1090,""y"":598,""timestamp"":18211},""timestamp"":18211},{""type"":""chart_hover"",""data"":{""x"":1079,""y"":596,""timestamp"":18226},""timestamp"":18226},{""type"":""chart_hover"",""data"":{""x"":1070,""y"":592,""timestamp"":18243},""timestamp"":18243},{""type"":""chart_hover"",""data"":{""x"":1063,""y"":589,""timestamp"":18257},""timestamp"":18257},{""type"":""chart_hover"",""data"":{""x"":1061,""y"":589,""timestamp"":18259},""timestamp"":18259},{""type"":""chart_hover"",""data"":{""x"":1057,""y"":587,""timestamp"":18272},""timestamp"":18272},{""type"":""chart_hover"",""data"":{""x"":1054,""y"":587,""timestamp"":18274},""timestamp"":18274},{""type"":""chart_hover"",""data"":{""x"":1050,""y"":587,""timestamp"":18289},""timestamp"":18289},{""type"":""chart_hover"",""data"":{""x"":1045,""y"":587,""timestamp"":18303},""timestamp"":18303},{""type"":""chart_hover"",""data"":{""x"":1043,""y"":587,""timestamp"":18318},""timestamp"":18318},{""type"":""chart_hover"",""data"":{""x"":1041,""y"":587,""timestamp"":18335},""timestamp"":18335},{""type"":""chart_hover"",""data"":{""x"":1036,""y"":587,""timestamp"":18348},""timestamp"":18348},{""type"":""chart_hover"",""data"":{""x"":1034,""y"":587,""timestamp"":18363},""timestamp"":18363},{""type"":""chart_hover"",""data"":{""x"":1032,""y"":587,""timestamp"":18379},""timestamp"":18379},{""type"":""chart_hover"",""data"":{""x"":1030,""y"":587,""timestamp"":18396},""timestamp"":18396},{""type"":""chart_hover"",""data"":{""x"":1027,""y"":587,""timestamp"":18425},""timestamp"":18425},{""type"":""chart_hover"",""data"":{""x"":1027,""y"":589,""timestamp"":18457},""timestamp"":18457},{""type"":""chart_hover"",""data"":{""x"":1027,""y"":591,""timestamp"":18473},""timestamp"":18473},{""type"":""chart_hover"",""data"":{""x"":1027,""y"":593,""timestamp"":18488},""timestamp"":18488},{""type"":""chart_hover"",""data"":{""x"":1031,""y"":598,""timestamp"":18503},""timestamp"":18503},{""type"":""chart_leave"",""data"":{""timestamp"":18521},""timestamp"":18521},{""type"":""chart_enter"",""data"":{""timestamp"":27844},""timestamp"":27844},{""type"":""chart_hover"",""data"":{""x"":1185,""y"":598,""timestamp"":27844},""timestamp"":27844},{""type"":""chart_hover"",""data"":{""x"":1183,""y"":589,""timestamp"":27857},""timestamp"":27857},{""type"":""chart_hover"",""data"":{""x"":1180,""y"":576,""timestamp"":27876},""timestamp"":27876},{""type"":""chart_hover"",""data"":{""x"":1178,""y"":567,""timestamp"":27888},""timestamp"":27888},{""type"":""chart_hover"",""data"":{""x"":1178,""y"":565,""timestamp"":27890},""timestamp"":27890},{""type"":""chart_hover"",""data"":{""x"":1176,""y"":553,""timestamp"":27906},""timestamp"":27906},{""type"":""chart_hover"",""data"":{""x"":1176,""y"":544,""timestamp"":27920},""timestamp"":27920},{""type"":""chart_hover"",""data"":{""x"":1176,""y"":535,""timestamp"":27937},""timestamp"":27937},{""type"":""chart_hover"",""data"":{""x"":1176,""y"":526,""timestamp"":27950},""timestamp"":27950},{""type"":""chart_hover"",""data"":{""x"":1180,""y"":517,""timestamp"":27966},""timestamp"":27966},{""type"":""chart_hover"",""data"":{""x"":1182,""y"":508,""timestamp"":27983},""timestamp"":27983},{""type"":""chart_hover"",""data"":{""x"":1184,""y"":504,""timestamp"":27997},""timestamp"":27997},{""type"":""chart_hover"",""data"":{""x"":1186,""y"":497,""timestamp"":28014},""timestamp"":28014},{""type"":""chart_hover"",""data"":{""x"":1189,""y"":495,""timestamp"":28028},""timestamp"":28028},{""type"":""chart_hover"",""data"":{""x"":1191,""y"":493,""timestamp"":28045},""timestamp"":28045},{""type"":""chart_hover"",""data"":{""x"":1193,""y"":493,""timestamp"":28077},""timestamp"":28077},{""type"":""chart_hover"",""data"":{""x"":1195,""y"":490,""timestamp"":28107},""timestamp"":28107},{""type"":""chart_hover"",""data"":{""x"":1200,""y"":490,""timestamp"":28121},""timestamp"":28121},{""type"":""chart_hover"",""data"":{""x"":1207,""y"":490,""timestamp"":28139},""timestamp"":28139},{""type"":""chart_hover"",""data"":{""x"":1213,""y"":490,""timestamp"":28153},""timestamp"":28153},{""type"":""chart_hover"",""data"":{""x"":1216,""y"":490,""timestamp"":28155},""timestamp"":28155},{""type"":""chart_hover"",""data"":{""x"":1222,""y"":490,""timestamp"":28168},""timestamp"":28168},{""type"":""chart_hover"",""data"":{""x"":1225,""y"":490,""timestamp"":28170},""timestamp"":28170},{""type"":""chart_hover"",""data"":{""x"":1234,""y"":490,""timestamp"":28183},""timestamp"":28183},{""type"":""chart_hover"",""data"":{""x"":1236,""y"":490,""timestamp"":28186},""timestamp"":28186},{""type"":""chart_hover"",""data"":{""x"":1243,""y"":490,""timestamp"":28199},""timestamp"":28199},{""type"":""chart_hover"",""data"":{""x"":1245,""y"":490,""timestamp"":28201},""timestamp"":28201},{""type"":""chart_hover"",""data"":{""x"":1247,""y"":490,""timestamp"":28206},""timestamp"":28206},{""type"":""chart_hover"",""data"":{""x"":1249,""y"":490,""timestamp"":28211},""timestamp"":28211},{""type"":""chart_hover"",""data"":{""x"":1252,""y"":490,""timestamp"":28215},""timestamp"":28215},{""type"":""chart_hover"",""data"":{""x"":1254,""y"":490,""timestamp"":28222},""timestamp"":28222},{""type"":""chart_hover"",""data"":{""x"":1254,""y"":488,""timestamp"":28225},""timestamp"":28225},{""type"":""chart_hover"",""data"":{""x"":1256,""y"":488,""timestamp"":28228},""timestamp"":28228},{""type"":""chart_hover"",""data"":{""x"":1258,""y"":488,""timestamp"":28238},""timestamp"":28238},{""type"":""chart_hover"",""data"":{""x"":1261,""y"":488,""timestamp"":28252},""timestamp"":28252},{""type"":""chart_hover"",""data"":{""x"":1263,""y"":488,""timestamp"":28290},""timestamp"":28290},{""type"":""chart_hover"",""data"":{""x"":1263,""y"":486,""timestamp"":28300},""timestamp"":28300},{""type"":""chart_hover"",""data"":{""x"":1265,""y"":486,""timestamp"":28315},""timestamp"":28315},{""type"":""chart_hover"",""data"":{""x"":1267,""y"":486,""timestamp"":28325},""timestamp"":28325},{""type"":""chart_hover"",""data"":{""x"":1267,""y"":484,""timestamp"":28333},""timestamp"":28333},{""type"":""chart_hover"",""data"":{""x"":1270,""y"":484,""timestamp"":28338},""timestamp"":28338},{""type"":""chart_hover"",""data"":{""x"":1272,""y"":484,""timestamp"":28361},""timestamp"":28361},{""type"":""chart_hover"",""data"":{""x"":1274,""y"":484,""timestamp"":28394},""timestamp"":28394},{""type"":""chart_hover"",""data"":{""x"":1274,""y"":481,""timestamp"":28402},""timestamp"":28402},{""type"":""chart_hover"",""data"":{""x"":1276,""y"":481,""timestamp"":28416},""timestamp"":28416},{""type"":""chart_hover"",""data"":{""x"":1276,""y"":479,""timestamp"":28427},""timestamp"":28427},{""type"":""chart_hover"",""data"":{""x"":1279,""y"":479,""timestamp"":28435},""timestamp"":28435},{""type"":""chart_hover"",""data"":{""x"":1279,""y"":477,""timestamp"":28448},""timestamp"":28448},{""type"":""chart_hover"",""data"":{""x"":1281,""y"":477,""timestamp"":28453},""timestamp"":28453},{""type"":""chart_hover"",""data"":{""x"":1283,""y"":477,""timestamp"":28471},""timestamp"":28471},{""type"":""chart_hover"",""data"":{""x"":1283,""y"":475,""timestamp"":28473},""timestamp"":28473},{""type"":""chart_hover"",""data"":{""x"":1285,""y"":475,""timestamp"":28497},""timestamp"":28497},{""type"":""chart_hover"",""data"":{""x"":1285,""y"":476,""timestamp"":28730},""timestamp"":28730},{""type"":""chart_hover"",""data"":{""x"":1285,""y"":478,""timestamp"":29481},""timestamp"":29481},{""type"":""chart_hover"",""data"":{""x"":1285,""y"":481,""timestamp"":29528},""timestamp"":29528},{""type"":""chart_hover"",""data"":{""x"":1284,""y"":481,""timestamp"":29531},""timestamp"":29531},{""type"":""chart_hover"",""data"":{""x"":1284,""y"":483,""timestamp"":29567},""timestamp"":29567},{""type"":""chart_hover"",""data"":{""x"":1282,""y"":483,""timestamp"":29568},""timestamp"":29568},{""type"":""chart_hover"",""data"":{""x"":1279,""y"":483,""timestamp"":29592},""timestamp"":29592},{""type"":""chart_hover"",""data"":{""x"":1279,""y"":485,""timestamp"":29594},""timestamp"":29594},{""type"":""chart_hover"",""data"":{""x"":1277,""y"":485,""timestamp"":29610},""timestamp"":29610},{""type"":""chart_hover"",""data"":{""x"":1277,""y"":487,""timestamp"":29612},""timestamp"":29612},{""type"":""chart_hover"",""data"":{""x"":1275,""y"":487,""timestamp"":29625},""timestamp"":29625},{""type"":""chart_hover"",""data"":{""x"":1275,""y"":490,""timestamp"":29632},""timestamp"":29632},{""type"":""chart_hover"",""data"":{""x"":1273,""y"":490,""timestamp"":29641},""timestamp"":29641},{""type"":""chart_hover"",""data"":{""x"":1273,""y"":492,""timestamp"":29650},""timestamp"":29650},{""type"":""chart_hover"",""data"":{""x"":1270,""y"":492,""timestamp"":29655},""timestamp"":29655},{""type"":""chart_hover"",""data"":{""x"":1270,""y"":494,""timestamp"":29667},""timestamp"":29667},{""type"":""chart_hover"",""data"":{""x"":1268,""y"":494,""timestamp"":29668},""timestamp"":29668},{""type"":""chart_hover"",""data"":{""x"":1266,""y"":494,""timestamp"":29678},""timestamp"":29678},{""type"":""chart_hover"",""data"":{""x"":1266,""y"":496,""timestamp"":29682},""timestamp"":29682},{""type"":""chart_hover"",""data"":{""x"":1264,""y"":496,""timestamp"":29687},""timestamp"":29687},{""type"":""chart_hover"",""data"":{""x"":1264,""y"":499,""timestamp"":29694},""timestamp"":29694},{""type"":""chart_hover"",""data"":{""x"":1261,""y"":499,""timestamp"":29695},""timestamp"":29695},{""type"":""chart_hover"",""data"":{""x"":1259,""y"":499,""timestamp"":29703},""timestamp"":29703},{""type"":""chart_hover"",""data"":{""x"":1259,""y"":501,""timestamp"":29704},""timestamp"":29704},{""type"":""chart_hover"",""data"":{""x"":1257,""y"":501,""timestamp"":29709},""timestamp"":29709},{""type"":""chart_hover"",""data"":{""x"":1257,""y"":503,""timestamp"":29714},""timestamp"":29714},{""type"":""chart_hover"",""data"":{""x"":1255,""y"":503,""timestamp"":29716},""timestamp"":29716},{""type"":""chart_hover"",""data"":{""x"":1252,""y"":505,""timestamp"":29723},""timestamp"":29723},{""type"":""chart_hover"",""data"":{""x"":1250,""y"":505,""timestamp"":29730},""timestamp"":29730},{""type"":""chart_hover"",""data"":{""x"":1250,""y"":508,""timestamp"":29732},""timestamp"":29732},{""type"":""chart_hover"",""data"":{""x"":1248,""y"":508,""timestamp"":29736},""timestamp"":29736},{""type"":""chart_hover"",""data"":{""x"":1246,""y"":510,""timestamp"":29742},""timestamp"":29742},{""type"":""chart_hover"",""data"":{""x"":1243,""y"":510,""timestamp"":29747},""timestamp"":29747},{""type"":""chart_hover"",""data"":{""x"":1243,""y"":512,""timestamp"":29751},""timestamp"":29751},{""type"":""chart_hover"",""data"":{""x"":1241,""y"":512,""timestamp"":29754},""timestamp"":29754},{""type"":""chart_hover"",""data"":{""x"":1239,""y"":512,""timestamp"":29760},""timestamp"":29760},{""type"":""chart_hover"",""data"":{""x"":1239,""y"":514,""timestamp"":29760},""timestamp"":29760},{""type"":""chart_hover"",""data"":{""x"":1237,""y"":514,""timestamp"":29767},""timestamp"":29767},{""type"":""chart_hover"",""data"":{""x"":1234,""y"":514,""timestamp"":29773},""timestamp"":29773},{""type"":""chart_hover"",""data"":{""x"":1234,""y"":517,""timestamp"":29774},""timestamp"":29774},{""type"":""chart_hover"",""data"":{""x"":1232,""y"":517,""timestamp"":29780},""timestamp"":29780},{""type"":""chart_hover"",""data"":{""x"":1230,""y"":517,""timestamp"":29788},""timestamp"":29788},{""type"":""chart_hover"",""data"":{""x"":1230,""y"":519,""timestamp"":29793},""timestamp"":29793},{""type"":""chart_hover"",""data"":{""x"":1228,""y"":519,""timestamp"":29797},""timestamp"":29797},{""type"":""chart_hover"",""data"":{""x"":1225,""y"":519,""timestamp"":29808},""timestamp"":29808},{""type"":""chart_hover"",""data"":{""x"":1223,""y"":519,""timestamp"":29822},""timestamp"":29822},{""type"":""chart_hover"",""data"":{""x"":1223,""y"":521,""timestamp"":29829},""timestamp"":29829},{""type"":""chart_hover"",""data"":{""x"":1221,""y"":521,""timestamp"":29839},""timestamp"":29839},{""type"":""chart_hover"",""data"":{""x"":1219,""y"":521,""timestamp"":29861},""timestamp"":29861},{""type"":""chart_hover"",""data"":{""x"":1216,""y"":521,""timestamp"":29899},""timestamp"":29899},{""type"":""chart_hover"",""data"":{""x"":1216,""y"":523,""timestamp"":29940},""timestamp"":29940},{""type"":""chart_hover"",""data"":{""x"":1214,""y"":523,""timestamp"":29947},""timestamp"":29947},{""type"":""chart_hover"",""data"":{""x"":1212,""y"":523,""timestamp"":30010},""timestamp"":30010},{""type"":""chart_hover"",""data"":{""x"":1210,""y"":523,""timestamp"":30067},""timestamp"":30067},{""type"":""chart_hover"",""data"":{""x"":1210,""y"":526,""timestamp"":30088},""timestamp"":30088},{""type"":""chart_hover"",""data"":{""x"":1210,""y"":524,""timestamp"":30840},""timestamp"":30840},{""type"":""chart_hover"",""data"":{""x"":1210,""y"":522,""timestamp"":30846},""timestamp"":30846},{""type"":""chart_hover"",""data"":{""x"":1210,""y"":520,""timestamp"":30853},""timestamp"":30853},{""type"":""chart_hover"",""data"":{""x"":1210,""y"":517,""timestamp"":30858},""timestamp"":30858},{""type"":""chart_hover"",""data"":{""x"":1207,""y"":517,""timestamp"":30859},""timestamp"":30859},{""type"":""chart_hover"",""data"":{""x"":1207,""y"":515,""timestamp"":30860},""timestamp"":30860},{""type"":""chart_hover"",""data"":{""x"":1207,""y"":513,""timestamp"":30863},""timestamp"":30863},{""type"":""chart_hover"",""data"":{""x"":1207,""y"":511,""timestamp"":30866},""timestamp"":30866},{""type"":""chart_hover"",""data"":{""x"":1207,""y"":508,""timestamp"":30870},""timestamp"":30870},{""type"":""chart_hover"",""data"":{""x"":1207,""y"":506,""timestamp"":30871},""timestamp"":30871},{""type"":""chart_hover"",""data"":{""x"":1207,""y"":504,""timestamp"":30874},""timestamp"":30874},{""type"":""chart_hover"",""data"":{""x"":1207,""y"":502,""timestamp"":30877},""timestamp"":30877},{""type"":""chart_hover"",""data"":{""x"":1207,""y"":499,""timestamp"":30878},""timestamp"":30878},{""type"":""chart_hover"",""data"":{""x"":1207,""y"":497,""timestamp"":30881},""timestamp"":30881},{""type"":""chart_hover"",""data"":{""x"":1207,""y"":495,""timestamp"":30883},""timestamp"":30883},{""type"":""chart_hover"",""data"":{""x"":1207,""y"":493,""timestamp"":30884},""timestamp"":30884},{""type"":""chart_hover"",""data"":{""x"":1207,""y"":490,""timestamp"":30886},""timestamp"":30886},{""type"":""chart_hover"",""data"":{""x"":1207,""y"":488,""timestamp"":30888},""timestamp"":30888},{""type"":""chart_hover"",""data"":{""x"":1207,""y"":486,""timestamp"":30890},""timestamp"":30890},{""type"":""chart_hover"",""data"":{""x"":1207,""y"":484,""timestamp"":30893},""timestamp"":30893},{""type"":""chart_hover"",""data"":{""x"":1207,""y"":481,""timestamp"":30894},""timestamp"":30894},{""type"":""chart_hover"",""data"":{""x"":1207,""y"":479,""timestamp"":30897},""timestamp"":30897},{""type"":""chart_hover"",""data"":{""x"":1207,""y"":477,""timestamp"":30898},""timestamp"":30898},{""type"":""chart_hover"",""data"":{""x"":1207,""y"":475,""timestamp"":30899},""timestamp"":30899},{""type"":""chart_hover"",""data"":{""x"":1207,""y"":472,""timestamp"":30901},""timestamp"":30901},{""type"":""chart_hover"",""data"":{""x"":1207,""y"":470,""timestamp"":30903},""timestamp"":30903},{""type"":""chart_hover"",""data"":{""x"":1207,""y"":468,""timestamp"":30906},""timestamp"":30906},{""type"":""chart_hover"",""data"":{""x"":1207,""y"":466,""timestamp"":30907},""timestamp"":30907},{""type"":""chart_hover"",""data"":{""x"":1207,""y"":463,""timestamp"":30909},""timestamp"":30909},{""type"":""chart_hover"",""data"":{""x"":1207,""y"":461,""timestamp"":30910},""timestamp"":30910},{""type"":""chart_hover"",""data"":{""x"":1207,""y"":459,""timestamp"":30913},""timestamp"":30913},{""type"":""chart_hover"",""data"":{""x"":1207,""y"":457,""timestamp"":30915},""timestamp"":30915},{""type"":""chart_hover"",""data"":{""x"":1207,""y"":454,""timestamp"":30917},""timestamp"":30917},{""type"":""chart_hover"",""data"":{""x"":1207,""y"":452,""timestamp"":30919},""timestamp"":30919},{""type"":""chart_hover"",""data"":{""x"":1207,""y"":450,""timestamp"":30921},""timestamp"":30921},{""type"":""chart_hover"",""data"":{""x"":1207,""y"":448,""timestamp"":30923},""timestamp"":30923},{""type"":""chart_hover"",""data"":{""x"":1207,""y"":445,""timestamp"":30926},""timestamp"":30926},{""type"":""chart_hover"",""data"":{""x"":1207,""y"":443,""timestamp"":30929},""timestamp"":30929},{""type"":""chart_hover"",""data"":{""x"":1207,""y"":441,""timestamp"":30931},""timestamp"":30931},{""type"":""chart_hover"",""data"":{""x"":1207,""y"":439,""timestamp"":30933},""timestamp"":30933},{""type"":""chart_hover"",""data"":{""x"":1207,""y"":436,""timestamp"":30935},""timestamp"":30935},{""type"":""chart_hover"",""data"":{""x"":1207,""y"":434,""timestamp"":30937},""timestamp"":30937},{""type"":""chart_hover"",""data"":{""x"":1207,""y"":432,""timestamp"":30940},""timestamp"":30940},{""type"":""chart_hover"",""data"":{""x"":1207,""y"":430,""timestamp"":30942},""timestamp"":30942},{""type"":""chart_hover"",""data"":{""x"":1207,""y"":427,""timestamp"":30946},""timestamp"":30946},{""type"":""chart_hover"",""data"":{""x"":1205,""y"":427,""timestamp"":30947},""timestamp"":30947},{""type"":""chart_hover"",""data"":{""x"":1205,""y"":425,""timestamp"":30947},""timestamp"":30947},{""type"":""chart_hover"",""data"":{""x"":1205,""y"":423,""timestamp"":30950},""timestamp"":30950},{""type"":""chart_hover"",""data"":{""x"":1205,""y"":421,""timestamp"":30953},""timestamp"":30953},{""type"":""chart_hover"",""data"":{""x"":1205,""y"":418,""timestamp"":30956},""timestamp"":30956},{""type"":""chart_hover"",""data"":{""x"":1205,""y"":416,""timestamp"":30959},""timestamp"":30959},{""type"":""chart_hover"",""data"":{""x"":1205,""y"":414,""timestamp"":30963},""timestamp"":30963},{""type"":""chart_hover"",""data"":{""x"":1205,""y"":412,""timestamp"":30965},""timestamp"":30965},{""type"":""chart_hover"",""data"":{""x"":1205,""y"":409,""timestamp"":30968},""timestamp"":30968},{""type"":""chart_hover"",""data"":{""x"":1205,""y"":407,""timestamp"":30971},""timestamp"":30971},{""type"":""chart_hover"",""data"":{""x"":1205,""y"":405,""timestamp"":30974},""timestamp"":30974},{""type"":""chart_hover"",""data"":{""x"":1205,""y"":403,""timestamp"":30978},""timestamp"":30978},{""type"":""chart_hover"",""data"":{""x"":1203,""y"":403,""timestamp"":30979},""timestamp"":30979},{""type"":""chart_hover"",""data"":{""x"":1203,""y"":400,""timestamp"":30981},""timestamp"":30981},{""type"":""chart_hover"",""data"":{""x"":1203,""y"":398,""timestamp"":30984},""timestamp"":30984},{""type"":""chart_hover"",""data"":{""x"":1203,""y"":396,""timestamp"":30987},""timestamp"":30987},{""type"":""chart_hover"",""data"":{""x"":1203,""y"":394,""timestamp"":30990},""timestamp"":30990},{""type"":""chart_hover"",""data"":{""x"":1203,""y"":391,""timestamp"":30994},""timestamp"":30994},{""type"":""chart_hover"",""data"":{""x"":1203,""y"":389,""timestamp"":30996},""timestamp"":30996},{""type"":""chart_hover"",""data"":{""x"":1203,""y"":387,""timestamp"":30998},""timestamp"":30998},{""type"":""chart_hover"",""data"":{""x"":1203,""y"":385,""timestamp"":31001},""timestamp"":31001},{""type"":""chart_hover"",""data"":{""x"":1203,""y"":382,""timestamp"":31004},""timestamp"":31004},{""type"":""chart_hover"",""data"":{""x"":1203,""y"":380,""timestamp"":31007},""timestamp"":31007},{""type"":""chart_hover"",""data"":{""x"":1203,""y"":378,""timestamp"":31010},""timestamp"":31010},{""type"":""chart_hover"",""data"":{""x"":1203,""y"":376,""timestamp"":31013},""timestamp"":31013},{""type"":""chart_hover"",""data"":{""x"":1203,""y"":373,""timestamp"":31017},""timestamp"":31017},{""type"":""chart_hover"",""data"":{""x"":1203,""y"":371,""timestamp"":31019},""timestamp"":31019},{""type"":""chart_hover"",""data"":{""x"":1203,""y"":369,""timestamp"":31022},""timestamp"":31022},{""type"":""chart_hover"",""data"":{""x"":1203,""y"":367,""timestamp"":31025},""timestamp"":31025},{""type"":""chart_hover"",""data"":{""x"":1203,""y"":364,""timestamp"":31027},""timestamp"":31027},{""type"":""chart_hover"",""data"":{""x"":1203,""y"":362,""timestamp"":31030},""timestamp"":31030},{""type"":""chart_hover"",""data"":{""x"":1203,""y"":360,""timestamp"":31033},""timestamp"":31033},{""type"":""chart_hover"",""data"":{""x"":1204,""y"":358,""timestamp"":31036},""timestamp"":31036},{""type"":""chart_hover"",""data"":{""x"":1204,""y"":355,""timestamp"":31037},""timestamp"":31037},{""type"":""chart_hover"",""data"":{""x"":1204,""y"":353,""timestamp"":31040},""timestamp"":31040},{""type"":""chart_hover"",""data"":{""x"":1204,""y"":351,""timestamp"":31042},""timestamp"":31042},{""type"":""chart_hover"",""data"":{""x"":1204,""y"":349,""timestamp"":31044},""timestamp"":31044},{""type"":""chart_hover"",""data"":{""x"":1207,""y"":349,""timestamp"":31045},""timestamp"":31045},{""type"":""chart_hover"",""data"":{""x"":1207,""y"":346,""timestamp"":31047},""timestamp"":31047},{""type"":""chart_hover"",""data"":{""x"":1207,""y"":344,""timestamp"":31050},""timestamp"":31050},{""type"":""chart_hover"",""data"":{""x"":1207,""y"":342,""timestamp"":31052},""timestamp"":31052},{""type"":""chart_hover"",""data"":{""x"":1209,""y"":342,""timestamp"":31053},""timestamp"":31053},{""type"":""chart_hover"",""data"":{""x"":1209,""y"":340,""timestamp"":31055},""timestamp"":31055},{""type"":""chart_hover"",""data"":{""x"":1209,""y"":337,""timestamp"":31057},""timestamp"":31057},{""type"":""chart_hover"",""data"":{""x"":1209,""y"":335,""timestamp"":31059},""timestamp"":31059},{""type"":""chart_hover"",""data"":{""x"":1211,""y"":335,""timestamp"":31061},""timestamp"":31061},{""type"":""chart_hover"",""data"":{""x"":1211,""y"":333,""timestamp"":31062},""timestamp"":31062},{""type"":""chart_hover"",""data"":{""x"":1211,""y"":331,""timestamp"":31066},""timestamp"":31066},{""type"":""chart_hover"",""data"":{""x"":1211,""y"":328,""timestamp"":31067},""timestamp"":31067},{""type"":""chart_hover"",""data"":{""x"":1213,""y"":328,""timestamp"":31069},""timestamp"":31069},{""type"":""chart_hover"",""data"":{""x"":1213,""y"":326,""timestamp"":31071},""timestamp"":31071},{""type"":""chart_hover"",""data"":{""x"":1213,""y"":324,""timestamp"":31073},""timestamp"":31073},{""type"":""chart_hover"",""data"":{""x"":1213,""y"":322,""timestamp"":31076},""timestamp"":31076},{""type"":""chart_hover"",""data"":{""x"":1216,""y"":322,""timestamp"":31077},""timestamp"":31077},{""type"":""chart_hover"",""data"":{""x"":1216,""y"":319,""timestamp"":31079},""timestamp"":31079},{""type"":""chart_hover"",""data"":{""x"":1216,""y"":317,""timestamp"":31083},""timestamp"":31083},{""type"":""chart_hover"",""data"":{""x"":1218,""y"":317,""timestamp"":31084},""timestamp"":31084},{""type"":""chart_hover"",""data"":{""x"":1218,""y"":315,""timestamp"":31087},""timestamp"":31087},{""type"":""chart_hover"",""data"":{""x"":1218,""y"":313,""timestamp"":31089},""timestamp"":31089},{""type"":""chart_hover"",""data"":{""x"":1220,""y"":313,""timestamp"":31091},""timestamp"":31091},{""type"":""chart_hover"",""data"":{""x"":1220,""y"":310,""timestamp"":31092},""timestamp"":31092},{""type"":""chart_hover"",""data"":{""x"":1220,""y"":308,""timestamp"":31095},""timestamp"":31095},{""type"":""chart_hover"",""data"":{""x"":1222,""y"":308,""timestamp"":31099},""timestamp"":31099},{""type"":""chart_hover"",""data"":{""x"":1222,""y"":306,""timestamp"":31099},""timestamp"":31099},{""type"":""chart_hover"",""data"":{""x"":1222,""y"":304,""timestamp"":31103},""timestamp"":31103},{""type"":""chart_hover"",""data"":{""x"":1225,""y"":301,""timestamp"":31106},""timestamp"":31106},{""type"":""chart_hover"",""data"":{""x"":1225,""y"":299,""timestamp"":31111},""timestamp"":31111},{""type"":""chart_hover"",""data"":{""x"":1227,""y"":299,""timestamp"":31115},""timestamp"":31115},{""type"":""chart_hover"",""data"":{""x"":1227,""y"":297,""timestamp"":31115},""timestamp"":31115},{""type"":""chart_hover"",""data"":{""x"":1227,""y"":295,""timestamp"":31121},""timestamp"":31121},{""type"":""chart_hover"",""data"":{""x"":1229,""y"":295,""timestamp"":31123},""timestamp"":31123},{""type"":""chart_hover"",""data"":{""x"":1229,""y"":292,""timestamp"":31127},""timestamp"":31127},{""type"":""chart_hover"",""data"":{""x"":1231,""y"":292,""timestamp"":31133},""timestamp"":31133},{""type"":""chart_hover"",""data"":{""x"":1231,""y"":290,""timestamp"":31136},""timestamp"":31136},{""type"":""chart_hover"",""data"":{""x"":1231,""y"":288,""timestamp"":31145},""timestamp"":31145},{""type"":""chart_hover"",""data"":{""x"":1234,""y"":288,""timestamp"":31147},""timestamp"":31147},{""type"":""chart_hover"",""data"":{""x"":1234,""y"":286,""timestamp"":31163},""timestamp"":31163},{""type"":""chart_hover"",""data"":{""x"":1236,""y"":286,""timestamp"":31163},""timestamp"":31163},{""type"":""chart_hover"",""data"":{""x"":1238,""y"":286,""timestamp"":31177},""timestamp"":31177},{""type"":""chart_hover"",""data"":{""x"":1240,""y"":286,""timestamp"":31188},""timestamp"":31188},{""type"":""chart_hover"",""data"":{""x"":1240,""y"":283,""timestamp"":31189},""timestamp"":31189},{""type"":""chart_hover"",""data"":{""x"":1243,""y"":283,""timestamp"":31199},""timestamp"":31199},{""type"":""chart_hover"",""data"":{""x"":1245,""y"":283,""timestamp"":31207},""timestamp"":31207},{""type"":""chart_hover"",""data"":{""x"":1247,""y"":283,""timestamp"":31213},""timestamp"":31213},{""type"":""c