city_a_estimate,city_b_estimate,click_events,comprehension_ease,condition,condition_id,condition_name,confidence_label,confidence_rating,data_trust,display_format,end_time,failed_audio,failed_images,failed_video,hover_events,interaction_log,internal_node_id,participant_id,percent_score,phase,phase1_complete,phase2_complete,predictions_shown,probability_estimate,question_order,response,responses,round,rt,rt_total,skeptical_rating,slider_moved,start_time,stimulus,success,time_elapsed,time_on_viz,timeout,total_interactions,total_questions,total_score,travel_choice,trial_index,trial_type,trust_composite,usability_composite,usability_difficulty,view_history,visualization_literacy_score,visualization_shown
,,,,,,,,,,,,"[]","[]","[]",,,0.0-0.0,6008bb26b4bbfe568fa29d80,,,,,,,,,,,,,,,,,true,954,,false,,,,,0,preload,,,,,,
,,,,,,,,,,,,,,,,,0.0-1.0,6008bb26b4bbfe568fa29d80,,,,,,,,0,,,7332,,,,,"
	        <div class=""welcome-screen"">
	            <h1>Air Quality Prediction Study</h1>
	            <p>Welcome! You are about to participate in a research study about how people make decisions using air quality predictions. This study examines how different ways of presenting prediction information affect trust and decision-making. The study will take approximately 15 minutes.</p>
	            <div class=""study-info"">
	                <h3>What you'll do:</h3>
	                <ul>
	                    <li>Complete a brief assessment of visualization understanding</li>
	                    <li>Make predictions about air quality in two cities</li>
	                    <li>Answer questions about your confidence and trust</li>
						<li>Report basic demographic data</li>
	                </ul>
	            </div>
	        </div>
	    ",,8287,,,,,,,1,html-button-response,,,,,,
,,,,,,,,,,,,,,,,,0.0-2.0,6008bb26b4bbfe568fa29d80,,,,,,,,,,,2602,,,,,,true,11891,,,,,,,2,fullscreen,,,,,,
,,,,,,,,,,,,,,,,,0.0-3.0,6008bb26b4bbfe568fa29d80,,,,,,,,"{""participant_id"":""6008bb26b4bbfe568fa29d80""}",,,3681,,,,,,,15574,,,,,,,3,survey-text,,,,,,
,,,,,,,,,,,,,,,,,0.0-4.0,6008bb26b4bbfe568fa29d80,,,,,,,,0,,,1630,,,,,"
	        <div class=""consent-form"">
	            <h2>Consent Form</h2>
	            <div class=""consent-header"">
	                <p><strong>Principal Investigator:</strong> Dr. Cindy Xiong Bearfield, Assistant Professor</p>
	                <p><strong>Study Title:</strong> Trusting What We See: Effect of Interactivity in Visual Data Analysis</p>
	                <p><strong>Supported By:</strong> Georgia Institute of Technology</p>
	            </div>
	            
	            <div class=""consent-details"">
	                <h3>WHAT IS THIS FORM?</h3>
	                <p>This form is called a Consent Form. It will give you information about the study so you can make an informed decision about participation in this research. We encourage you to take some time to think this over and ask questions now and at any other time. If you decide to participate, you will be asked to sign this form and you will be given a copy for your records.</p>

	                <h3>WHAT ARE SOME OF THE IMPORTANT ASPECTS OF THIS RESEARCH STUDY THAT I SHOULD BE AWARE OF?</h3>
	                <ul>
	                    <li>Whether or not you take part is up to you.</li>
	                    <li>You can choose not to take part.</li>
	                    <li>You can agree to take part and later change your mind.</li>
	                    <li>Your decision will not be held against you.</li>
	                </ul>

	                <h3>WHY ARE WE DOING THIS RESEARCH STUDY?</h3>
	                <p>The purpose of our study is to explore the visualization design space so we can understand how people perceive, interpret, and make decisions from visualizations. The results from this study can help us design visualizations and visualization guidelines to help people better communicate and understand data.</p>

	                <h3>WHO CAN PARTICIPATE IN THIS RESEARCH STUDY?</h3>
	                <p>Participants in this study must be at least 18 years of age or older and have general familiarity with using web-based systems. Participants currently outside of the U.S. cannot participate in this study (e.g. in the European Union or China).</p>

	                <h3>WHAT COMPENSATION I WILL RECEIVE?</h3>
	                <p>You will receive payment through Prolific worth $12/hour for participating in this study. We expect this study to take less than 20 minutes. Your participation is entirely voluntary. You are free to withdraw at any time, and if you do, you will receive partial payment for your time.</p>

	                <h3>HOW MANY PEOPLE WILL PARTICIPATE?</h3>
	                <p>We expect about 200 people will be in this research study.</p>

	                <h3>WHAT WILL I BE ASKED TO DO AND HOW MUCH TIME WILL IT TAKE?</h3>
	                <p>We will show you several data visualizations or components of a visualization and ask you to perform a visual task with the visualization on a computer screen, such as counting, searching, recognizing, memorizing, or describing the information presented to you. We may also ask you to fill out questionnaires concerning your thoughts regarding the visualization you saw. We expect that you will be in this research study to take between 15 and 60 minutes. We expect this study to be a one-off session and will not contact you regarding the study itself in the future.</p>

	                <h3>WILL BEING IN THIS RESEARCH STUDY HELP ME IN ANY WAY?</h3>
	                <p>You are not likely to have any direct benefit from being in this research study. The potential benefits to you from participation may include learning about how data visualization research is conducted, and you may learn about issues of current interest in data visualization and psychology.</p>

	                <h3>WHAT ARE MY RISKS OF BEING IN THIS RESEARCH STUDY?</h3>
	                <p>Your participation in this study does not involve any risks other than what you would encounter in daily life. In particular, you may experience fatigue or boredom, however, you may take breaks between tasks. The effects of participating should be comparable to those you would experience from viewing a computer monitor and using a keyboard. You may withdraw at any time.</p>

	                <h3>HOW WILL MY PERSONAL INFORMATION BE PROTECTED?</h3>
	                <p>We will comply with any applicable laws and regulations regarding confidentiality. To make sure that this research is being carried out in the proper way, the Georgia Institute of Technology IRB may review study records. The Office of Human Research Protections may also look at study records.</p>
	                <p>Efforts will be made to limit the use and disclosure of your personal information, including research study records, to people who need to review this information. We cannot promise complete secrecy. Organizations that may inspect and copy your information include the IRB and other representatives of this institution. Please be notified that our data privacy policy is based on U.S. regulations. Participants who are out of the U.S. might be excluded due to different data privacy requirements.</p>
	                <p><strong>Data Sharing:</strong> De-identified data from this study will be shared among the GATech research team, as well as the research community at large to advance science and health. We will remove or code any personal information that could identify you before files are shared with other researchers to ensure that, by current scientific standards and known methods, no one will be able to identify you from the information we share. Despite these measures, we cannot guarantee the anonymity of your personal data.</p>

	                <h3>WILL I BE GIVEN ANY MONEY OR OTHER COMPENSATION FOR BEING IN THIS RESEARCH STUDY?</h3>
	                <p>If you agree to take part in this research study, we will provide compensation. You will be paid in accordance with the stated policies of Amazon Mechanical Turk and/or Prolific.com. Payment will be made upon completion and acceptance of tasks that you have agreed to complete and you will be paid via Mechanical Turk or Prolific.com. If you choose to withdraw from the study, you will not be compensated for your participation.</p>

	                <h3>WHAT ELSE DO I NEED TO KNOW?</h3>
	                <p>We might be using attention check questions in our surveys. If you miss 2 or more attention check questions, your HIT will not be accepted and you will not be compensated.</p>

	                <h3>WHO CAN I TALK TO IF I HAVE QUESTIONS?</h3>
	                <p>If you have any questions about the content of this research project, you may contact Dr. Cindy Xiong Bearfield at cxiong@gatech.edu, or contact Songwen Hu at shu343@gatech.edu. If you have any questions about your rights as a research subject, you may also contact Georgia Institute of Technology Office of Research Integrity Assurance at IRB@gatech.edu.</p>

	                <h3>WHAT HAPPENS IF I SAY YES, BUT I CHANGE MY MIND LATER?</h3>
	                <p>You can decide not to participate in this research or you can start and then decide to leave the research at any time and it will not be held against you. To do so, simply exit the experiment. Any data already collected will not be saved.</p>

	                <p><strong>By clicking ""I agree"" below you are indicating that you are at least 18 years old, currently in the U.S., have read this consent form, and agree to participate in this research study. Please print a copy of this page for your records.</strong></p>
	            </div>
	        </div>
	    ",,17204,,,,,,,4,html-button-response,,,,,,
,,,,,,,,,,,,,,,,,0.0-5.0,6008bb26b4bbfe568fa29d80,,,,,,,,0,,,4943,,,,,"
	        <div class=""vis-literacy-intro"">
	            <h2>Visualization Assessment</h2>
	            <p>Before we begin the main study, we'd like to assess your ability to read and interpret data visualizations.</p>
	            
	            <div class=""assessment-info"">
	                <h3>What you'll do:</h3>
	                <ul>
	                    <li>View 12 different data visualizations (charts and graphs)</li>
	                    <li>Answer questions about what each visualization shows</li>
	                    <li>Take your time to examine each chart carefully</li>
	                </ul>
	                
	                <p><strong>This assessment will take approximately 5-10 minutes.</strong></p>
	                <p>There are no right or wrong interpretations - we're interested in how you read visualizations.</p>
	            </div>
	        </div>
	    ",,22148,,,,,,,5,html-button-response,,,,,,
,,,,,condition_9_combined,Combined PI + Ensemble,,,,,,,,,,,0.0-6.0,6008bb26b4bbfe568fa29d80,100,,,,,,,,"[{""question_id"":""minivlat_1"",""question_type"":""treemap"",""question_text"":""eBay is nested in the Software category."",""response"":1,""correct_answer"":1,""is_correct"":true,""rt"":14141.300000011921},{""question_id"":""minivlat_2"",""question_type"":""stacked_100_bar"",""question_text"":""Which country has the lowest proportion of Gold medals?"",""response"":1,""correct_answer"":1,""is_correct"":true,""rt"":11693},{""question_id"":""minivlat_3"",""question_type"":""histogram"",""question_text"":""What distance have customers traveled the most?"",""response"":1,""correct_answer"":1,""is_correct"":true,""rt"":10673.899999976158},{""question_id"":""minivlat_4"",""question_type"":""choropleth"",""question_text"":""In 2020, the unemployment rate for Washington (WA) was higher than that of Wisconsin (WI)."",""response"":0,""correct_answer"":0,""is_correct"":true,""rt"":17791.900000035763},{""question_id"":""minivlat_5"",""question_type"":""pie_chart"",""question_text"":""What is the approximate global smartphone market share of Samsung?"",""response"":0,""correct_answer"":0,""is_correct"":true,""rt"":11484},{""question_id"":""minivlat_6"",""question_type"":""bubble_chart"",""question_text"":""Which has the largest number of metro stations?"",""response"":1,""correct_answer"":1,""is_correct"":true,""rt"":18797},{""question_id"":""minivlat_7"",""question_type"":""stacked_bar"",""question_text"":""What is the cost of peanuts in Seoul?"",""response"":1,""correct_answer"":1,""is_correct"":true,""rt"":17406},{""question_id"":""minivlat_8"",""question_type"":""line_chart"",""question_text"":""What was the price of a barrel of oil in February 2020?"",""response"":0,""correct_answer"":0,""is_correct"":true,""rt"":10810.199999988079},{""question_id"":""minivlat_9"",""question_type"":""bar_chart"",""question_text"":""What is the average internet speed in Japan?"",""response"":1,""correct_answer"":1,""is_correct"":true,""rt"":11239.800000011921},{""question_id"":""minivlat_10"",""question_type"":""area_chart"",""question_text"":""What was the average price of a pound of coffee in October 2019?"",""response"":0,""correct_answer"":0,""is_correct"":true,""rt"":9489.899999976158},{""question_id"":""minivlat_11"",""question_type"":""stacked_area"",""question_text"":""What was the ratio of girls named \""Isla\"" to girls named \""Amelia\"" in 2012 in the UK?"",""response"":1,""correct_answer"":1,""is_correct"":true,""rt"":46219},{""question_id"":""minivlat_12"",""question_type"":""scatter_plot"",""question_text"":""There is a negative relationship between the height and weight of the 85 males."",""response"":1,""correct_answer"":1,""is_correct"":true,""rt"":11964.900000035763}]",,,191710.90000003576,,,,,,213860,,,,12,12,,6,vis-literacy,,,,,,
,,,,,,,,,,,,,,,,,0.0-7.0,6008bb26b4bbfe568fa29d80,,,,,,,,,,,7391,,,,,,,221251,,,,,,,7,instructions,,,,"[{""page_index"":0,""viewing_time"":7391}]",,
88,92,,,,condition_0_historical,Historical Only,Somewhat Uncertain,3,,historical_only,,,,,,"[{""type"":""chart_enter"",""data"":{""timestamp"":824.5},""timestamp"":824.5},{""type"":""chart_hover"",""data"":{""x"":1269,""y"":449,""timestamp"":824.5},""timestamp"":824.5},{""type"":""chart_hover"",""data"":{""x"":1268,""y"":449,""timestamp"":838.3000000119209},""timestamp"":838.3000000119209},{""type"":""chart_hover"",""data"":{""x"":1267,""y"":449,""timestamp"":845.3000000119209},""timestamp"":845.3000000119209},{""type"":""chart_hover"",""data"":{""x"":1266,""y"":449,""timestamp"":853.5},""timestamp"":853.5},{""type"":""chart_hover"",""data"":{""x"":1265,""y"":449,""timestamp"":875.3999999761581},""timestamp"":875.3999999761581},{""type"":""chart_hover"",""data"":{""x"":1265,""y"":450,""timestamp"":883.3000000119209},""timestamp"":883.3000000119209},{""type"":""chart_hover"",""data"":{""x"":1264,""y"":450,""timestamp"":900.8999999761581},""timestamp"":900.8999999761581},{""type"":""chart_hover"",""data"":{""x"":1263,""y"":450,""timestamp"":910.3000000119209},""timestamp"":910.3000000119209},{""type"":""chart_hover"",""data"":{""x"":1263,""y"":451,""timestamp"":915.1999999880791},""timestamp"":915.1999999880791},{""type"":""chart_hover"",""data"":{""x"":1262,""y"":451,""timestamp"":926.1999999880791},""timestamp"":926.1999999880791},{""type"":""chart_hover"",""data"":{""x"":1261,""y"":451,""timestamp"":942.5999999642372},""timestamp"":942.5999999642372},{""type"":""chart_hover"",""data"":{""x"":1260,""y"":451,""timestamp"":965.1999999880791},""timestamp"":965.1999999880791},{""type"":""chart_hover"",""data"":{""x"":1260,""y"":452,""timestamp"":970.3000000119209},""timestamp"":970.3000000119209},{""type"":""chart_hover"",""data"":{""x"":1259,""y"":452,""timestamp"":1017.5},""timestamp"":1017.5},{""type"":""chart_hover"",""data"":{""x"":1259,""y"":453,""timestamp"":1032.800000011921},""timestamp"":1032.800000011921},{""type"":""chart_hover"",""data"":{""x"":1258,""y"":453,""timestamp"":1039.800000011921},""timestamp"":1039.800000011921},{""type"":""chart_hover"",""data"":{""x"":1257,""y"":454,""timestamp"":1046.800000011921},""timestamp"":1046.800000011921},{""type"":""chart_hover"",""data"":{""x"":1256,""y"":455,""timestamp"":1053.699999988079},""timestamp"":1053.699999988079},{""type"":""chart_hover"",""data"":{""x"":1255,""y"":455,""timestamp"":1060.699999988079},""timestamp"":1060.699999988079},{""type"":""chart_hover"",""data"":{""x"":1254,""y"":457,""timestamp"":1067.5999999642372},""timestamp"":1067.5999999642372},{""type"":""chart_hover"",""data"":{""x"":1253,""y"":459,""timestamp"":1074.5},""timestamp"":1074.5},{""type"":""chart_hover"",""data"":{""x"":1252,""y"":460,""timestamp"":1081.3999999761581},""timestamp"":1081.3999999761581},{""type"":""chart_hover"",""data"":{""x"":1251,""y"":462,""timestamp"":1088.3999999761581},""timestamp"":1088.3999999761581},{""type"":""chart_hover"",""data"":{""x"":1250,""y"":464,""timestamp"":1095.3999999761581},""timestamp"":1095.3999999761581},{""type"":""chart_hover"",""data"":{""x"":1250,""y"":467,""timestamp"":1102.3999999761581},""timestamp"":1102.3999999761581},{""type"":""chart_hover"",""data"":{""x"":1249,""y"":468,""timestamp"":1109.199999988079},""timestamp"":1109.199999988079},{""type"":""chart_hover"",""data"":{""x"":1249,""y"":470,""timestamp"":1116.300000011921},""timestamp"":1116.300000011921},{""type"":""chart_hover"",""data"":{""x"":1248,""y"":472,""timestamp"":1123.0999999642372},""timestamp"":1123.0999999642372},{""type"":""chart_hover"",""data"":{""x"":1248,""y"":473,""timestamp"":1130.199999988079},""timestamp"":1130.199999988079},{""type"":""chart_hover"",""data"":{""x"":1248,""y"":474,""timestamp"":1137.0999999642372},""timestamp"":1137.0999999642372},{""type"":""chart_hover"",""data"":{""x"":1247,""y"":475,""timestamp"":1144.0999999642372},""timestamp"":1144.0999999642372},{""type"":""chart_hover"",""data"":{""x"":1246,""y"":477,""timestamp"":1156.199999988079},""timestamp"":1156.199999988079},{""type"":""chart_hover"",""data"":{""x"":1246,""y"":478,""timestamp"":1165},""timestamp"":1165},{""type"":""chart_hover"",""data"":{""x"":1246,""y"":479,""timestamp"":1171.8999999761581},""timestamp"":1171.8999999761581},{""type"":""chart_hover"",""data"":{""x"":1245,""y"":480,""timestamp"":1182.0999999642372},""timestamp"":1182.0999999642372},{""type"":""chart_hover"",""data"":{""x"":1245,""y"":481,""timestamp"":1191.199999988079},""timestamp"":1191.199999988079},{""type"":""chart_hover"",""data"":{""x"":1244,""y"":483,""timestamp"":1206.5999999642372},""timestamp"":1206.5999999642372},{""type"":""chart_hover"",""data"":{""x"":1244,""y"":484,""timestamp"":1216.199999988079},""timestamp"":1216.199999988079},{""type"":""chart_hover"",""data"":{""x"":1244,""y"":485,""timestamp"":1225.300000011921},""timestamp"":1225.300000011921},{""type"":""chart_hover"",""data"":{""x"":1243,""y"":485,""timestamp"":1227.3999999761581},""timestamp"":1227.3999999761581},{""type"":""chart_hover"",""data"":{""x"":1243,""y"":486,""timestamp"":1234.3999999761581},""timestamp"":1234.3999999761581},{""type"":""chart_hover"",""data"":{""x"":1243,""y"":487,""timestamp"":1241.300000011921},""timestamp"":1241.300000011921},{""type"":""chart_hover"",""data"":{""x"":1243,""y"":488,""timestamp"":1248.300000011921},""timestamp"":1248.300000011921},{""type"":""chart_hover"",""data"":{""x"":1242,""y"":488,""timestamp"":1255.199999988079},""timestamp"":1255.199999988079},{""type"":""chart_hover"",""data"":{""x"":1242,""y"":489,""timestamp"":1262.300000011921},""timestamp"":1262.300000011921},{""type"":""chart_hover"",""data"":{""x"":1241,""y"":491,""timestamp"":1269.199999988079},""timestamp"":1269.199999988079},{""type"":""chart_hover"",""data"":{""x"":1240,""y"":492,""timestamp"":1276},""timestamp"":1276},{""type"":""chart_hover"",""data"":{""x"":1240,""y"":493,""timestamp"":1283},""timestamp"":1283},{""type"":""chart_hover"",""data"":{""x"":1240,""y"":494,""timestamp"":1290},""timestamp"":1290},{""type"":""chart_hover"",""data"":{""x"":1240,""y"":495,""timestamp"":1296.8999999761581},""timestamp"":1296.8999999761581},{""type"":""chart_hover"",""data"":{""x"":1240,""y"":496,""timestamp"":1303.8999999761581},""timestamp"":1303.8999999761581},{""type"":""chart_hover"",""data"":{""x"":1239,""y"":498,""timestamp"":1310.8999999761581},""timestamp"":1310.8999999761581},{""type"":""chart_hover"",""data"":{""x"":1239,""y"":499,""timestamp"":1324.199999988079},""timestamp"":1324.199999988079},{""type"":""chart_hover"",""data"":{""x"":1238,""y"":500,""timestamp"":1339.3999999761581},""timestamp"":1339.3999999761581},{""type"":""chart_hover"",""data"":{""x"":1238,""y"":501,""timestamp"":1474.5999999642372},""timestamp"":1474.5999999642372},{""type"":""chart_hover"",""data"":{""x"":1237,""y"":501,""timestamp"":1477.5999999642372},""timestamp"":1477.5999999642372},{""type"":""chart_hover"",""data"":{""x"":1236,""y"":501,""timestamp"":1488.300000011921},""timestamp"":1488.300000011921},{""type"":""chart_hover"",""data"":{""x"":1236,""y"":502,""timestamp"":1491.5},""timestamp"":1491.5},{""type"":""chart_hover"",""data"":{""x"":1235,""y"":503,""timestamp"":1498.5},""timestamp"":1498.5},{""type"":""chart_hover"",""data"":{""x"":1234,""y"":503,""timestamp"":1506.300000011921},""timestamp"":1506.300000011921},{""type"":""chart_hover"",""data"":{""x"":1234,""y"":504,""timestamp"":1512.300000011921},""timestamp"":1512.300000011921},{""type"":""chart_hover"",""data"":{""x"":1233,""y"":505,""timestamp"":1519.300000011921},""timestamp"":1519.300000011921},{""type"":""chart_hover"",""data"":{""x"":1233,""y"":506,""timestamp"":1526.300000011921},""timestamp"":1526.300000011921},{""type"":""chart_hover"",""data"":{""x"":1232,""y"":506,""timestamp"":1533.199999988079},""timestamp"":1533.199999988079},{""type"":""chart_hover"",""data"":{""x"":1232,""y"":507,""timestamp"":1545.5},""timestamp"":1545.5},{""type"":""chart_hover"",""data"":{""x"":1231,""y"":507,""timestamp"":1547.0999999642372},""timestamp"":1547.0999999642372},{""type"":""chart_hover"",""data"":{""x"":1230,""y"":507,""timestamp"":1568},""timestamp"":1568},{""type"":""chart_hover"",""data"":{""x"":1230,""y"":508,""timestamp"":1574.8999999761581},""timestamp"":1574.8999999761581},{""type"":""chart_hover"",""data"":{""x"":1229,""y"":508,""timestamp"":1647.5},""timestamp"":1647.5},{""type"":""chart_hover"",""data"":{""x"":1229,""y"":509,""timestamp"":1679.5999999642372},""timestamp"":1679.5999999642372},{""type"":""chart_hover"",""data"":{""x"":1228,""y"":509,""timestamp"":1686},""timestamp"":1686},{""type"":""chart_hover"",""data"":{""x"":1227,""y"":509,""timestamp"":1692.8999999761581},""timestamp"":1692.8999999761581},{""type"":""chart_hover"",""data"":{""x"":1226,""y"":510,""timestamp"":1700},""timestamp"":1700},{""type"":""chart_hover"",""data"":{""x"":1225,""y"":510,""timestamp"":1708.199999988079},""timestamp"":1708.199999988079},{""type"":""chart_hover"",""data"":{""x"":1225,""y"":511,""timestamp"":1714.199999988079},""timestamp"":1714.199999988079},{""type"":""chart_hover"",""data"":{""x"":1224,""y"":511,""timestamp"":1720.800000011921},""timestamp"":1720.800000011921},{""type"":""chart_hover"",""data"":{""x"":1224,""y"":512,""timestamp"":1727.800000011921},""timestamp"":1727.800000011921},{""type"":""chart_hover"",""data"":{""x"":1223,""y"":512,""timestamp"":1734.5999999642372},""timestamp"":1734.5999999642372},{""type"":""chart_hover"",""data"":{""x"":1222,""y"":513,""timestamp"":1741.699999988079},""timestamp"":1741.699999988079},{""type"":""chart_hover"",""data"":{""x"":1221,""y"":515,""timestamp"":1748.5999999642372},""timestamp"":1748.5999999642372},{""type"":""chart_hover"",""data"":{""x"":1220,""y"":516,""timestamp"":1756.300000011921},""timestamp"":1756.300000011921},{""type"":""chart_hover"",""data"":{""x"":1219,""y"":516,""timestamp"":1768.300000011921},""timestamp"":1768.300000011921},{""type"":""chart_hover"",""data"":{""x"":1218,""y"":516,""timestamp"":1776.300000011921},""timestamp"":1776.300000011921},{""type"":""chart_hover"",""data"":{""x"":1218,""y"":517,""timestamp"":1779.300000011921},""timestamp"":1779.300000011921},{""type"":""chart_hover"",""data"":{""x"":1217,""y"":517,""timestamp"":1788.300000011921},""timestamp"":1788.300000011921},{""type"":""chart_hover"",""data"":{""x"":1216,""y"":517,""timestamp"":1804.199999988079},""timestamp"":1804.199999988079},{""type"":""chart_hover"",""data"":{""x"":1214,""y"":518,""timestamp"":1811.0999999642372},""timestamp"":1811.0999999642372},{""type"":""chart_hover"",""data"":{""x"":1213,""y"":518,""timestamp"":1818.0999999642372},""timestamp"":1818.0999999642372},{""type"":""chart_hover"",""data"":{""x"":1211,""y"":518,""timestamp"":1825},""timestamp"":1825},{""type"":""chart_hover"",""data"":{""x"":1209,""y"":518,""timestamp"":1832},""timestamp"":1832},{""type"":""chart_hover"",""data"":{""x"":1207,""y"":518,""timestamp"":1838.8999999761581},""timestamp"":1838.8999999761581},{""type"":""chart_hover"",""data"":{""x"":1204,""y"":518,""timestamp"":1845.800000011921},""timestamp"":1845.800000011921},{""type"":""chart_hover"",""data"":{""x"":1201,""y"":518,""timestamp"":1852.800000011921},""timestamp"":1852.800000011921},{""type"":""chart_hover"",""data"":{""x"":1198,""y"":518,""timestamp"":1859.8999999761581},""timestamp"":1859.8999999761581},{""type"":""chart_hover"",""data"":{""x"":1194,""y"":518,""timestamp"":1866.8999999761581},""timestamp"":1866.8999999761581},{""type"":""chart_hover"",""data"":{""x"":1190,""y"":518,""timestamp"":1873.699999988079},""timestamp"":1873.699999988079},{""type"":""chart_hover"",""data"":{""x"":1187,""y"":518,""timestamp"":1880.699999988079},""timestamp"":1880.699999988079},{""type"":""chart_hover"",""data"":{""x"":1183,""y"":518,""timestamp"":1887.5},""timestamp"":1887.5},{""type"":""chart_hover"",""data"":{""x"":1180,""y"":518,""timestamp"":1894.5},""timestamp"":1894.5},{""type"":""chart_hover"",""data"":{""x"":1176,""y"":518,""timestamp"":1901.5},""timestamp"":1901.5},{""type"":""chart_hover"",""data"":{""x"":1172,""y"":518,""timestamp"":1908.3999999761581},""timestamp"":1908.3999999761581},{""type"":""chart_hover"",""data"":{""x"":1169,""y"":518,""timestamp"":1915.300000011921},""timestamp"":1915.300000011921},{""type"":""chart_hover"",""data"":{""x"":1167,""y"":518,""timestamp"":1922.300000011921},""timestamp"":1922.300000011921},{""type"":""chart_hover"",""data"":{""x"":1164,""y"":518,""timestamp"":1929.300000011921},""timestamp"":1929.300000011921},{""type"":""chart_hover"",""data"":{""x"":1161,""y"":518,""timestamp"":1936.199999988079},""timestamp"":1936.199999988079},{""type"":""chart_hover"",""data"":{""x"":1159,""y"":518,""timestamp"":1943.199999988079},""timestamp"":1943.199999988079},{""type"":""chart_hover"",""data"":{""x"":1156,""y"":518,""timestamp"":1950.0999999642372},""timestamp"":1950.0999999642372},{""type"":""chart_hover"",""data"":{""x"":1154,""y"":518,""timestamp"":1957},""timestamp"":1957},{""type"":""chart_hover"",""data"":{""x"":1151,""y"":518,""timestamp"":1964},""timestamp"":1964},{""type"":""chart_hover"",""data"":{""x"":1149,""y"":518,""timestamp"":1970.8999999761581},""timestamp"":1970.8999999761581},{""type"":""chart_hover"",""data"":{""x"":1145,""y"":519,""timestamp"":1977.800000011921},""timestamp"":1977.800000011921},{""type"":""chart_hover"",""data"":{""x"":1142,""y"":519,""timestamp"":1984.8999999761581},""timestamp"":1984.8999999761581},{""type"":""chart_hover"",""data"":{""x"":1138,""y"":518,""timestamp"":1991.800000011921},""timestamp"":1991.800000011921},{""type"":""chart_hover"",""data"":{""x"":1134,""y"":518,""timestamp"":1998.699999988079},""timestamp"":1998.699999988079},{""type"":""chart_hover"",""data"":{""x"":1130,""y"":517,""timestamp"":2005.699999988079},""timestamp"":2005.699999988079},{""type"":""chart_hover"",""data"":{""x"":1126,""y"":516,""timestamp"":2012.5999999642372},""timestamp"":2012.5999999642372},{""type"":""chart_hover"",""data"":{""x"":1121,""y"":515,""timestamp"":2019.5999999642372},""timestamp"":2019.5999999642372},{""type"":""chart_hover"",""data"":{""x"":1115,""y"":513,""timestamp"":2026.5},""timestamp"":2026.5},{""type"":""chart_hover"",""data"":{""x"":1111,""y"":512,""timestamp"":2033.5},""timestamp"":2033.5},{""type"":""chart_hover"",""data"":{""x"":1106,""y"":511,""timestamp"":2040.3999999761581},""timestamp"":2040.3999999761581},{""type"":""chart_hover"",""data"":{""x"":1100,""y"":509,""timestamp"":2047.300000011921},""timestamp"":2047.300000011921},{""type"":""chart_hover"",""data"":{""x"":1095,""y"":509,""timestamp"":2054.300000011921},""timestamp"":2054.300000011921},{""type"":""chart_hover"",""data"":{""x"":1090,""y"":507,""timestamp"":2061.300000011921},""timestamp"":2061.300000011921},{""type"":""chart_hover"",""data"":{""x"":1086,""y"":506,""timestamp"":2068.199999988079},""timestamp"":2068.199999988079},{""type"":""chart_hover"",""data"":{""x"":1082,""y"":505,""timestamp"":2075.300000011921},""timestamp"":2075.300000011921},{""type"":""chart_hover"",""data"":{""x"":1078,""y"":504,""timestamp"":2082.099999964237},""timestamp"":2082.099999964237},{""type"":""chart_hover"",""data"":{""x"":1074,""y"":503,""timestamp"":2089.099999964237},""timestamp"":2089.099999964237},{""type"":""chart_hover"",""data"":{""x"":1070,""y"":502,""timestamp"":2096},""timestamp"":2096},{""type"":""chart_hover"",""data"":{""x"":1067,""y"":501,""timestamp"":2103},""timestamp"":2103},{""type"":""chart_hover"",""data"":{""x"":1065,""y"":500,""timestamp"":2109.899999976158},""timestamp"":2109.899999976158},{""type"":""chart_hover"",""data"":{""x"":1062,""y"":500,""timestamp"":2116.899999976158},""timestamp"":2116.899999976158},{""type"":""chart_hover"",""data"":{""x"":1060,""y"":499,""timestamp"":2123.899999976158},""timestamp"":2123.899999976158},{""type"":""chart_hover"",""data"":{""x"":1058,""y"":498,""timestamp"":2130.899999976158},""timestamp"":2130.899999976158},{""type"":""chart_hover"",""data"":{""x"":1057,""y"":498,""timestamp"":2137.699999988079},""timestamp"":2137.699999988079},{""type"":""chart_hover"",""data"":{""x"":1056,""y"":497,""timestamp"":2144.699999988079},""timestamp"":2144.699999988079},{""type"":""chart_hover"",""data"":{""x"":1055,""y"":497,""timestamp"":2151.599999964237},""timestamp"":2151.599999964237},{""type"":""chart_hover"",""data"":{""x"":1054,""y"":497,""timestamp"":2158.599999964237},""timestamp"":2158.599999964237},{""type"":""chart_hover"",""data"":{""x"":1053,""y"":496,""timestamp"":2165.5},""timestamp"":2165.5},{""type"":""chart_hover"",""data"":{""x"":1052,""y"":496,""timestamp"":2172.5},""timestamp"":2172.5},{""type"":""chart_hover"",""data"":{""x"":1051,""y"":496,""timestamp"":2179.399999976158},""timestamp"":2179.399999976158},{""type"":""chart_hover"",""data"":{""x"":1050,""y"":496,""timestamp"":2186.399999976158},""timestamp"":2186.399999976158},{""type"":""chart_hover"",""data"":{""x"":1049,""y"":495,""timestamp"":2193.300000011921},""timestamp"":2193.300000011921},{""type"":""chart_hover"",""data"":{""x"":1048,""y"":494,""timestamp"":2200.300000011921},""timestamp"":2200.300000011921},{""type"":""chart_hover"",""data"":{""x"":1046,""y"":493,""timestamp"":2207.199999988079},""timestamp"":2207.199999988079},{""type"":""chart_hover"",""data"":{""x"":1044,""y"":491,""timestamp"":2214.199999988079},""timestamp"":2214.300000011921},{""type"":""chart_hover"",""data"":{""x"":1041,""y"":488,""timestamp"":2221.399999976158},""timestamp"":2221.399999976158},{""type"":""chart_hover"",""data"":{""x"":1038,""y"":484,""timestamp"":2228.099999964237},""timestamp"":2228.099999964237},{""type"":""chart_hover"",""data"":{""x"":1034,""y"":480,""timestamp"":2235.099999964237},""timestamp"":2235.099999964237},{""type"":""chart_hover"",""data"":{""x"":1030,""y"":476,""timestamp"":2241.899999976158},""timestamp"":2241.899999976158},{""type"":""chart_hover"",""data"":{""x"":1026,""y"":471,""timestamp"":2248.899999976158},""timestamp"":2248.899999976158},{""type"":""chart_hover"",""data"":{""x"":1021,""y"":466,""timestamp"":2255.899999976158},""timestamp"":2255.899999976158},{""type"":""chart_hover"",""data"":{""x"":1016,""y"":461,""timestamp"":2262.800000011921},""timestamp"":2262.800000011921},{""type"":""chart_hover"",""data"":{""x"":1010,""y"":456,""timestamp"":2269.699999988079},""timestamp"":2269.699999988079},{""type"":""chart_hover"",""data"":{""x"":1006,""y"":452,""timestamp"":2276.599999964237},""timestamp"":2276.599999964237},{""type"":""chart_hover"",""data"":{""x"":1002,""y"":447,""timestamp"":2283.599999964237},""timestamp"":2283.599999964237},{""type"":""chart_hover"",""data"":{""x"":998,""y"":443,""timestamp"":2290.599999964237},""timestamp"":2290.599999964237},{""type"":""chart_hover"",""data"":{""x"":995,""y"":440,""timestamp"":2297.5},""timestamp"":2297.5},{""type"":""chart_hover"",""data"":{""x"":993,""y"":437,""timestamp"":2304.5},""timestamp"":2304.5},{""type"":""chart_hover"",""data"":{""x"":991,""y"":435,""timestamp"":2311.5},""timestamp"":2311.5},{""type"":""chart_hover"",""data"":{""x"":989,""y"":432,""timestamp"":2318.300000011921},""timestamp"":2318.300000011921},{""type"":""chart_hover"",""data"":{""x"":988,""y"":431,""timestamp"":2325.399999976158},""timestamp"":2325.399999976158},{""type"":""chart_hover"",""data"":{""x"":987,""y"":429,""timestamp"":2332.300000011921},""timestamp"":2332.300000011921},{""type"":""chart_hover"",""data"":{""x"":987,""y"":428,""timestamp"":2339.300000011921},""timestamp"":2339.300000011921},{""type"":""chart_hover"",""data"":{""x"":987,""y"":427,""timestamp"":2346.199999988079},""timestamp"":2346.199999988079},{""type"":""chart_hover"",""data"":{""x"":986,""y"":426,""timestamp"":2353.099999964237},""timestamp"":2353.099999964237},{""type"":""chart_hover"",""data"":{""x"":986,""y"":425,""timestamp"":2374},""timestamp"":2374},{""type"":""chart_hover"",""data"":{""x"":985,""y"":425,""timestamp"":2381},""timestamp"":2381},{""type"":""chart_hover"",""data"":{""x"":985,""y"":424,""timestamp"":2436.399999976158},""timestamp"":2436.399999976158},{""type"":""chart_hover"",""data"":{""x"":984,""y"":424,""timestamp"":2443.899999976158},""timestamp"":2443.899999976158},{""type"":""chart_hover"",""data"":{""x"":982,""y"":423,""timestamp"":2451.300000011921},""timestamp"":2451.300000011921},{""type"":""chart_hover"",""data"":{""x"":981,""y"":422,""timestamp"":2457.399999976158},""timestamp"":2457.399999976158},{""type"":""chart_hover"",""data"":{""x"":979,""y"":422,""timestamp"":2464.300000011921},""timestamp"":2464.300000011921},{""type"":""chart_hover"",""data"":{""x"":977,""y"":421,""timestamp"":2471.199999988079},""timestamp"":2471.199999988079},{""type"":""chart_hover"",""data"":{""x"":975,""y"":420,""timestamp"":2478.199999988079},""timestamp"":2478.199999988079},{""type"":""chart_hover"",""data"":{""x"":972,""y"":419,""timestamp"":2485.199999988079},""timestamp"":2485.199999988079},{""type"":""chart_hover"",""data"":{""x"":970,""y"":419,""timestamp"":2492.199999988079},""timestamp"":2492.199999988079},{""type"":""chart_hover"",""data"":{""x"":967,""y"":419,""timestamp"":2499},""timestamp"":2499},{""type"":""chart_hover"",""data"":{""x"":962,""y"":419,""timestamp"":2506},""timestamp"":2506},{""type"":""chart_hover"",""data"":{""x"":958,""y"":420,""timestamp"":2512.899999976158},""timestamp"":2512.899999976158},{""type"":""chart_hover"",""data"":{""x"":954,""y"":421,""timestamp"":2519.899999976158},""timestamp"":2519.899999976158},{""type"":""chart_hover"",""data"":{""x"":949,""y"":422,""timestamp"":2526.899999976158},""timestamp"":2526.899999976158},{""type"":""chart_hover"",""data"":{""x"":945,""y"":424,""timestamp"":2533.800000011921},""timestamp"":2533.800000011921},{""type"":""chart_hover"",""data"":{""x"":941,""y"":426,""timestamp"":2540.699999988079},""timestamp"":2540.699999988079},{""type"":""chart_hover"",""data"":{""x"":938,""y"":428,""timestamp"":2547.699999988079},""timestamp"":2547.699999988079},{""type"":""chart_hover"",""data"":{""x"":934,""y"":430,""timestamp"":2554.599999964237},""timestamp"":2554.599999964237},{""type"":""chart_hover"",""data"":{""x"":931,""y"":432,""timestamp"":2561.599999964237},""timestamp"":2561.599999964237},{""type"":""chart_hover"",""data"":{""x"":929,""y"":434,""timestamp"":2568.5},""timestamp"":2568.5},{""type"":""chart_hover"",""data"":{""x"":926,""y"":437,""timestamp"":2575.5},""timestamp"":2575.5},{""type"":""chart_hover"",""data"":{""x"":924,""y"":439,""timestamp"":2582.399999976158},""timestamp"":2582.399999976158},{""type"":""chart_hover"",""data"":{""x"":923,""y"":441,""timestamp"":2589.399999976158},""timestamp"":2589.399999976158},{""type"":""chart_hover"",""data"":{""x"":922,""y"":443,""timestamp"":2596.300000011921},""timestamp"":2596.300000011921},{""type"":""chart_hover"",""data"":{""x"":921,""y"":445,""timestamp"":2603.300000011921},""timestamp"":2603.300000011921},{""type"":""chart_hover"",""data"":{""x"":920,""y"":446,""timestamp"":2610.199999988079},""timestamp"":2610.199999988079},{""type"":""chart_hover"",""data"":{""x"":920,""y"":448,""timestamp"":2617.099999964237},""timestamp"":2617.099999964237},{""type"":""chart_hover"",""data"":{""x"":920,""y"":449,""timestamp"":2624.099999964237},""timestamp"":2624.099999964237},{""type"":""chart_hover"",""data"":{""x"":919,""y"":450,""timestamp"":2631},""timestamp"":2631},{""type"":""chart_hover"",""data"":{""x"":919,""y"":451,""timestamp"":2684.5},""timestamp"":2684.5},{""type"":""chart_hover"",""data"":{""x"":920,""y"":451,""timestamp"":2688.099999964237},""timestamp"":2688.099999964237},{""type"":""chart_hover"",""data"":{""x"":920,""y"":453,""timestamp"":2693.599999964237},""timestamp"":2693.599999964237},{""type"":""chart_hover"",""data"":{""x"":921,""y"":456,""timestamp"":2700.599999964237},""timestamp"":2700.599999964237},{""type"":""chart_hover"",""data"":{""x"":922,""y"":461,""timestamp"":2707.5},""timestamp"":2707.5},{""type"":""chart_hover"",""data"":{""x"":924,""y"":470,""timestamp"":2714.399999976158},""timestamp"":2714.399999976158},{""type"":""chart_hover"",""data"":{""x"":925,""y"":483,""timestamp"":2721.399999976158},""timestamp"":2721.399999976158},{""type"":""chart_hover"",""data"":{""x"":928,""y"":499,""timestamp"":2728.300000011921},""timestamp"":2728.300000011921},{""type"":""chart_hover"",""data"":{""x"":928,""y"":515,""timestamp"":2735.300000011921},""timestamp"":2735.300000011921},{""type"":""chart_hover"",""data"":{""x"":927,""y"":532,""timestamp"":2742.199999988079},""timestamp"":2742.199999988079},{""type"":""chart_hover"",""data"":{""x"":922,""y"":546,""timestamp"":2749.199999988079},""timestamp"":2749.199999988079},{""type"":""chart_hover"",""data"":{""x"":917,""y"":558,""timestamp"":2756.199999988079},""timestamp"":2756.199999988079},{""type"":""chart_hover"",""data"":{""x"":906,""y"":567,""timestamp"":2763.099999964237},""timestamp"":2763.099999964237},{""type"":""chart_hover"",""data"":{""x"":892,""y"":575,""timestamp"":2770.099999964237},""timestamp"":2770.099999964237},{""type"":""chart_hover"",""data"":{""x"":888,""y"":578,""timestamp"":2777},""timestamp"":2777},{""type"":""chart_hover"",""data"":{""x"":888,""y"":577,""timestamp"":3330.599999964237},""timestamp"":3330.599999964237},{""type"":""chart_hover"",""data"":{""x"":888,""y"":576,""timestamp"":3332.800000011921},""timestamp"":3332.800000011921},{""type"":""chart_hover"",""data"":{""x"":889,""y"":572,""timestamp"":3339.800000011921},""timestamp"":3339.800000011921},{""type"":""chart_hover"",""data"":{""x"":890,""y"":567,""timestamp"":3346.800000011921},""timestamp"":3346.800000011921},{""type"":""chart_hover"",""data"":{""x"":890,""y"":561,""timestamp"":3353.699999988079},""timestamp"":3353.699999988079},{""type"":""chart_hover"",""data"":{""x"":889,""y"":555,""timestamp"":3360.699999988079},""timestamp"":3360.699999988079},{""type"":""chart_hover"",""data"":{""x"":888,""y"":553,""timestamp"":3367.599999964237},""timestamp"":3367.599999964237},{""type"":""chart_hover"",""data"":{""x"":886,""y"":551,""timestamp"":3374.599999964237},""timestamp"":3374.599999964237},{""type"":""chart_hover"",""data"":{""x"":885,""y"":551,""timestamp"":3381.599999964237},""timestamp"":3381.599999964237},{""type"":""chart_hover"",""data"":{""x"":885,""y"":550,""timestamp"":3391.199999988079},""timestamp"":3391.199999988079},{""type"":""chart_hover"",""data"":{""x"":886,""y"":550,""timestamp"":3410.199999988079},""timestamp"":3410.199999988079},{""type"":""chart_hover"",""data"":{""x"":887,""y"":550,""timestamp"":3418.199999988079},""timestamp"":3418.199999988079},{""type"":""chart_hover"",""data"":{""x"":888,""y"":550,""timestamp"":3424.099999964237},""timestamp"":3424.099999964237},{""type"":""chart_hover"",""data"":{""x"":889,""y"":550,""timestamp"":3430.099999964237},""timestamp"":3430.099999964237},{""type"":""chart_hover"",""data"":{""x"":891,""y"":550,""timestamp"":3437.099999964237},""timestamp"":3437.099999964237},{""type"":""chart_hover"",""data"":{""x"":892,""y"":550,""timestamp"":3444.099999964237},""timestamp"":3444.099999964237},{""type"":""chart_hover"",""data"":{""x"":894,""y"":551,""timestamp"":3451},""timestamp"":3451},{""type"":""chart_hover"",""data"":{""x"":895,""y"":551,""timestamp"":3457.899999976158},""timestamp"":3457.899999976158},{""type"":""chart_hover"",""data"":{""x"":896,""y"":551,""timestamp"":3464.800000011921},""timestamp"":3464.800000011921},{""type"":""chart_hover"",""data"":{""x"":897,""y"":551,""timestamp"":3473.099999964237},""timestamp"":3473.099999964237},{""type"":""chart_hover"",""data"":{""x"":898,""y"":551,""timestamp"":3573.5},""timestamp"":3573.599999964237},{""type"":""chart_hover"",""data"":{""x"":899,""y"":551,""timestamp"":3634.300000011921},""timestamp"":3634.300000011921},{""type"":""chart_hover"",""data"":{""x"":900,""y"":551,""timestamp"":3643.199999988079},""timestamp"":3643.199999988079},{""type"":""chart_hover"",""data"":{""x"":901,""y"":551,""timestamp"":3648.199999988079},""timestamp"":3648.199999988079},{""type"":""chart_hover"",""data"":{""x"":902,""y"":551,""timestamp"":3656.399999976158},""timestamp"":3656.5},{""type"":""chart_hover"",""data"":{""x"":903,""y"":551,""timestamp"":3659.399999976158},""timestamp"":3659.399999976158},{""type"":""chart_hover"",""data"":{""x"":904,""y"":551,""timestamp"":3666.399999976158},""timestamp"":3666.399999976158},{""type"":""chart_hover"",""data"":{""x"":905,""y"":551,""timestamp"":3673.300000011921},""timestamp"":3673.300000011921},{""type"":""chart_hover"",""data"":{""x"":906,""y"":551,""timestamp"":3680.300000011921},""timestamp"":3680.300000011921},{""type"":""chart_hover"",""data"":{""x"":907,""y"":551,""timestamp"":3701.199999988079},""timestamp"":3701.199999988079},{""type"":""chart_hover"",""data"":{""x"":908,""y"":551,""timestamp"":3770.599999964237},""timestamp"":3770.599999964237},{""type"":""chart_hover"",""data"":{""x"":909,""y"":551,""timestamp"":3777.899999976158},""timestamp"":3777.899999976158},{""type"":""chart_hover"",""data"":{""x"":910,""y"":551,""timestamp"":3785.5},""timestamp"":3785.5},{""type"":""chart_hover"",""data"":{""x"":911,""y"":551,""timestamp"":3791.399999976158},""timestamp"":3791.399999976158},{""type"":""chart_hover"",""data"":{""x"":912,""y"":551,""timestamp"":3798.5},""timestamp"":3798.5},{""type"":""chart_hover"",""data"":{""x"":913,""y"":551,""timestamp"":3809.199999988079},""timestamp"":3809.199999988079},{""type"":""chart_hover"",""data"":{""x"":914,""y"":551,""timestamp"":3826.300000011921},""timestamp"":3826.300000011921},{""type"":""chart_hover"",""data"":{""x"":915,""y"":552,""timestamp"":3833.199999988079},""timestamp"":3833.199999988079},{""type"":""chart_hover"",""data"":{""x"":917,""y"":553,""timestamp"":3840.099999964237},""timestamp"":3840.099999964237},{""type"":""chart_hover"",""data"":{""x"":920,""y"":554,""timestamp"":3847.099999964237},""timestamp"":3847.099999964237},{""type"":""chart_hover"",""data"":{""x"":923,""y"":556,""timestamp"":3854.099999964237},""timestamp"":3854.099999964237},{""type"":""chart_hover"",""data"":{""x"":925,""y"":557,""timestamp"":3861},""timestamp"":3861},{""type"":""chart_hover"",""data"":{""x"":927,""y"":559,""timestamp"":3868.099999964237},""timestamp"":3868.099999964237},{""type"":""chart_hover"",""data"":{""x"":929,""y"":560,""timestamp"":3874.800000011921},""timestamp"":3874.800000011921},{""type"":""chart_hover"",""data"":{""x"":932,""y"":562,""timestamp"":3881.800000011921},""timestamp"":3881.800000011921},{""type"":""chart_hover"",""data"":{""x"":935,""y"":563,""timestamp"":3888.800000011921},""timestamp"":3888.800000011921},{""type"":""chart_hover"",""data"":{""x"":938,""y"":565,""timestamp"":3895.699999988079},""timestamp"":3895.800000011921},{""type"":""chart_hover"",""data"":{""x"":940,""y"":566,""timestamp"":3902.599999964237},""timestamp"":3902.599999964237},{""type"":""chart_hover"",""data"":{""x"":942,""y"":568,""timestamp"":3909.599999964237},""timestamp"":3909.599999964237},{""type"":""chart_hover"",""data"":{""x"":944,""y"":569,""timestamp"":3916.599999964237},""timestamp"":3916.599999964237},{""type"":""chart_hover"",""data"":{""x"":946,""y"":570,""timestamp"":3923.5},""timestamp"":3923.5},{""type"":""chart_hover"",""data"":{""x"":948,""y"":570,""timestamp"":3930.5},""timestamp"":3930.5},{""type"":""chart_hover"",""data"":{""x"":949,""y"":572,""timestamp"":3937.399999976158},""timestamp"":3937.399999976158},{""type"":""chart_hover"",""data"":{""x"":951,""y"":572,""timestamp"":3944.300000011921},""timestamp"":3944.300000011921},{""type"":""chart_hover"",""data"":{""x"":951,""y"":573,""timestamp"":3951.399999976158},""timestamp"":3951.399999976158},{""type"":""chart_hover"",""data"":{""x"":952,""y"":574,""timestamp"":3958.199999988079},""timestamp"":3958.199999988079},{""type"":""chart_hover"",""data"":{""x"":954,""y"":575,""timestamp"":3965.199999988079},""timestamp"":3965.199999988079},{""type"":""chart_hover"",""data"":{""x"":955,""y"":575,""timestamp"":3972.099999964237},""timestamp"":3972.099999964237},{""type"":""chart_hover"",""data"":{""x"":957,""y"":576,""timestamp"":3979.099999964237},""timestamp"":3979.099999964237},{""type"":""chart_hover"",""data"":{""x"":958,""y"":577,""timestamp"":3986.099999964237},""timestamp"":3986.099999964237},{""type"":""chart_hover"",""data"":{""x"":960,""y"":579,""timestamp"":3993.099999964237},""timestamp"":3993.099999964237},{""type"":""chart_hover"",""data"":{""x"":962,""y"":580,""timestamp"":4000},""timestamp"":4000},{""type"":""chart_hover"",""data"":{""x"":965,""y"":581,""timestamp"":4006.899999976158},""timestamp"":4006.899999976158},{""type"":""chart_hover"",""data"":{""x"":967,""y"":582,""timestamp"":4013.800000011921},""timestamp"":4013.800000011921},{""type"":""chart_hover"",""data"":{""x"":968,""y"":583,""timestamp"":4020.800000011921},""timestamp"":4020.800000011921},{""type"":""chart_hover"",""data"":{""x"":970,""y"":584,""timestamp"":4027.699999988079},""timestamp"":4027.699999988079},{""type"":""chart_hover"",""data"":{""x"":971,""y"":585,""timestamp"":4034.699999988079},""timestamp"":4034.699999988079},{""type"":""chart_hover"",""data"":{""x"":973,""y"":586,""timestamp"":4041.599999964237},""timestamp"":4041.599999964237},{""type"":""chart_hover"",""data"":{""x"":974,""y"":587,""timestamp"":4048.599999964237},""timestamp"":4048.599999964237},{""type"":""chart_hover"",""data"":{""x"":976,""y"":588,""timestamp"":4055.5},""timestamp"":4055.5},{""type"":""chart_hover"",""data"":{""x"":977,""y"":589,""timestamp"":4062.5},""timestamp"":4062.5},{""type"":""chart_hover"",""data"":{""x"":979,""y"":590,""timestamp"":4069.5},""timestamp"":4069.5},{""type"":""chart_hover"",""data"":{""x"":980,""y"":591,""timestamp"":4076.399999976158},""timestamp"":4076.399999976158},{""type"":""chart_hover"",""data"":{""x"":981,""y"":592,""timestamp"":4083.300000011921},""timestamp"":4083.300000011921},{""type"":""chart_hover"",""data"":{""x"":982,""y"":593,""timestamp"":4090.300000011921},""timestamp"":4090.300000011921},{""type"":""chart_hover"",""data"":{""x"":983,""y"":593,""timestamp"":4097.199999988079},""timestamp"":4097.199999988079},{""type"":""chart_hover"",""data"":{""x"":984,""y"":594,""timestamp"":4104.199999988079},""timestamp"":4104.199999988079},{""type"":""chart_hover"",""data"":{""x"":985,""y"":595,""timestamp"":4113.199999988079},""timestamp"":4113.199999988079},{""type"":""chart_hover"",""data"":{""x"":986,""y"":596,""timestamp"":4265.5},""timestamp"":4265.5},{""type"":""chart_hover"",""data"":{""x"":987,""y"":596,""timestamp"":4271},""timestamp"":4271},{""type"":""chart_hover"",""data"":{""x"":988,""y"":596,""timestamp"":4280.199999988079},""timestamp"":4280.199999988079},{""type"":""chart_hover"",""data"":{""x"":988,""y"":597,""timestamp"":4284.899999976158},""timestamp"":4284.899999976158},{""type"":""chart_hover"",""data"":{""x"":989,""y"":598,""timestamp"":4291.699999988079},""timestamp"":4291.699999988079},{""type"":""chart_hover"",""data"":{""x"":990,""y"":598,""timestamp"":4298.899999976158},""timestamp"":4298.899999976158},{""type"":""chart_hover"",""data"":{""x"":991,""y"":598,""timestamp"":4308.300000011921},""timestamp"":4308.300000011921},{""type"":""chart_leave"",""data"":{""timestamp"":4564.599999964237},""timestamp"":4564.599999964237},{""type"":""chart_enter"",""data"":{""timestamp"":4875.599999964237},""timestamp"":4875.599999964237},{""type"":""chart_leave"",""data"":{""timestamp"":4945.099999964237},""timestamp"":4945.099999964237},{""type"":""chart_enter"",""data"":{""timestamp"":7154.800000011921},""timestamp"":7154.800000011921},{""type"":""chart_hover"",""data"":{""x"":991,""y"":599,""timestamp"":7154.800000011921},""timestamp"":7154.800000011921},{""type"":""chart_hover"",""data"":{""x"":990,""y"":597,""timestamp"":7161.699999988079},""timestamp"":7161.699999988079},{""type"":""chart_hover"",""data"":{""x"":989,""y"":596,""timestamp"":7168.699999988079},""timestamp"":7168.699999988079},{""type"":""chart_hover"",""data"":{""x"":988,""y"":595,""timestamp"":7175.599999964237},""timestamp"":7175.599999964237},{""type"":""chart_hover"",""data"":{""x"":987,""y"":594,""timestamp"":7182.599999964237},""timestamp"":7182.599999964237},{""type"":""chart_hover"",""data"":{""x"":986,""y"":593,""timestamp"":7189.5},""timestamp"":7189.5},{""type"":""chart_hover"",""data"":{""x"":985,""y"":592,""timestamp"":7196.5},""timestamp"":7196.5},{""type"":""chart_hover"",""data"":{""x"":985,""y"":591,""timestamp"":7203.399999976158},""timestamp"":7203.399999976158},{""type"":""chart_hover"",""data"":{""x"":984,""y"":590,""timestamp"":7210.399999976158},""timestamp"":7210.399999976158},{""type"":""chart_hover"",""data"":{""x"":984,""y"":589,""timestamp"":7217.300000011921},""timestamp"":7217.300000011921},{""type"":""chart_hover"",""data"":{""x"":983,""y"":589,""timestamp"":7224.199999988079},""timestamp"":7224.199999988079},{""type"":""chart_hover"",""data"":{""x"":983,""y"":588,""timestamp"":7265.899999976158},""timestamp"":7265.899999976158},{""type"":""chart_hover"",""data"":{""x"":982,""y"":588,""timestamp"":7335.399999976158},""timestamp"":7335.399999976158},{""type"":""chart_hover"",""data"":{""x"":981,""y"":586,""timestamp"":7342.300000011921},""timestamp"":7342.300000011921},{""type"":""chart_hover"",""data"":{""x"":980,""y"":584,""timestamp"":7349.300000011921},""timestamp"":7349.300000011921},{""type"":""chart_hover"",""data"":{""x"":979,""y"":583,""timestamp"":7356.300000011921},""timestamp"":7356.300000011921},{""type"":""chart_hover"",""data"":{""x"":978,""y"":581,""timestamp"":7363.199999988079},""timestamp"":7363.199999988079},{""type"":""chart_hover"",""data"":{""x"":978,""y"":580,""timestamp"":7370.199999988079},""timestamp"":7370.199999988079},{""type"":""chart_hover"",""data"":{""x"":977,""y"":579,""timestamp"":7377.099999964237},""timestamp"":7377.099999964237},{""type"":""chart_hover"",""data"":{""x"":976,""y"":577,""timestamp"":7384},""timestamp"":7384},{""type"":""chart_hover"",""data"":{""x"":975,""y"":576,""timestamp"":7391},""timestamp"":7391},{""type"":""chart_hover"",""data"":{""x"":975,""y"":574,""timestamp"":7398},""timestamp"":7398},{""type"":""chart_hover"",""data"":{""x"":973,""y"":573,""timestamp"":7404.899999976158},""timestamp"":7404.899999976158},{""type"":""chart_hover"",""data"":{""x"":973,""y"":572,""timestamp"":7411.899999976158},""timestamp"":7411.899999976158},{""type"":""chart_hover"",""data"":{""x"":972,""y"":572,""timestamp"":7418.800000011921},""timestamp"":7418.800000011921},{""type"":""chart_hover"",""data"":{""x"":972,""y"":571,""timestamp"":7548.599999964237},""timestamp"":7548.599999964237},{""type"":""chart_hover"",""data"":{""x"":972,""y"":570,""timestamp"":7556.199999988079},""timestamp"":7556.199999988079},{""type"":""chart_hover"",""data"":{""x"":972,""y"":569,""timestamp"":7559.099999964237},""timestamp"":7559.099999964237},{""type"":""chart_hover"",""data"":{""x"":971,""y"":567,""timestamp"":7564.599999964237},""timestamp"":7564.599999964237},{""type"":""chart_hover"",""data"":{""x"":970,""y"":565,""timestamp"":7571.599999964237},""timestamp"":7571.599999964237},{""type"":""chart_hover"",""data"":{""x"":970,""y"":563,""timestamp"":7578.599999964237},""timestamp"":7578.599999964237},{""type"":""chart_hover"",""data"":{""x"":969,""y"":562,""timestamp"":7585.5},""timestamp"":7585.5},{""type"":""chart_hover"",""data"":{""x"":969,""y"":561,""timestamp"":7592.399999976158},""timestamp"":7592.399999976158},{""type"":""chart_hover"",""data"":{""x"":969,""y"":560,""timestamp"":7603.199999988079},""timestamp"":7603.199999988079},{""type"":""chart_hover"",""data"":{""x"":969,""y"":559,""timestamp"":7628.099999964237},""timestamp"":7628.099999964237},{""type"":""chart_hover"",""data"":{""x"":968,""y"":559,""timestamp"":7640.599999964237},""timestamp"":7640.699999988079},{""type"":""chart_hover"",""data"":{""x"":968,""y"":558,""timestamp"":7795.5},""timestamp"":7795.5},{""type"":""chart_hover"",""data"":{""x"":968,""y"":557,""timestamp"":7800.899999976158},""timestamp"":7800.899999976158},{""type"":""chart_hover"",""data"":{""x"":967,""y"":556,""timestamp"":7807.899999976158},""timestamp"":7807.899999976158},{""type"":""chart_hover"",""data"":{""x"":967,""y"":555,""timestamp"":7814.899999976158},""timestamp"":7814.899999976158},{""type"":""chart_hover"",""data"":{""x"":967,""y"":554,""timestamp"":7821.899999976158},""timestamp"":7821.899999976158},{""type"":""chart_hover"",""data"":{""x"":967,""y"":553,""timestamp"":7829.399999976158},""timestamp"":7829.399999976158},{""type"":""chart_hover"",""data"":{""x"":966,""y"":553,""timestamp"":8032.5},""timestamp"":8032.5},{""type"":""chart_hover"",""data"":{""x"":966,""y"":552,""timestamp"":8064.300000011921},""timestamp"":8064.300000011921},{""type"":""chart_hover"",""data"":{""x"":967,""y"":552,""timestamp"":9376.599999964237},""timestamp"":9376.599999964237},{""type"":""chart_hover"",""data"":{""x"":968,""y"":552,""timestamp"":9380.300000011921},""timestamp"":9380.300000011921},{""type"":""chart_hover"",""data"":{""x"":970,""y"":551,""timestamp"":9385.199999988079},""timestamp"":9385.199999988079},{""type"":""chart_hover"",""data"":{""x"":976,""y"":550,""timestamp"":9392.099999964237},""timestamp"":9392.099999964237},{""type"":""chart_hover"",""data"":{""x"":981,""y"":549,""timestamp"":9399.199999988079},""timestamp"":9399.199999988079},{""type"":""chart_hover"",""data"":{""x"":987,""y"":548,""timestamp"":9406.099999964237},""timestamp"":9406.099999964237},{""type"":""chart_hover"",""data"":{""x"":993,""y"":547,""timestamp"":9413},""timestamp"":9413},{""type"":""chart_hover"",""data"":{""x"":998,""y"":547,""timestamp"":9420},""timestamp"":9420},{""type"":""chart_hover"",""data"":{""x"":1002,""y"":546,""timestamp"":9426.899999976158},""timestamp"":9426.899999976158},{""type"":""chart_hover"",""data"":{""x"":1007,""y"":546,""timestamp"":9433.899999976158},""timestamp"":9433.899999976158},{""type"":""chart_hover"",""data"":{""x"":1012,""y"":545,""timestamp"":9440.899999976158},""timestamp"":9440.899999976158},{""type"":""chart_hover"",""data"":{""x"":1018,""y"":544,""timestamp"":9447.800000011921},""timestamp"":9447.800000011921},{""type"":""chart_hover"",""data"":{""x"":1024,""y"":542,""timestamp"":9454.699999988079},""timestamp"":9454.699999988079},{""type"":""chart_hover"",""data"":{""x"":1032,""y"":540,""timestamp"":9461.599999964237},""timestamp"":9461.599999964237},{""type"":""chart_hover"",""data"":{""x"":1040,""y"":537,""timestamp"":9468.599999964237},""timestamp"":9468.599999964237},{""type"":""chart_hover"",""data"":{""x"":1048,""y"":534,""timestamp"":9475.599999964237},""timestamp"":9475.599999964237},{""type"":""chart_hover"",""data"":{""x"":1054,""y"":532,""timestamp"":9482.5},""timestamp"":9482.5},{""type"":""chart_hover"",""data"":{""x"":1060,""y"":530,""timestamp"":9489.5},""timestamp"":9489.5},{""type"":""chart_hover"",""data"":{""x"":1063,""y"":528,""timestamp"":9496.399999976158},""timestamp"":9496.399999976158},{""type"":""chart_hover"",""data"":{""x"":1065,""y"":528,""timestamp"":9503.399999976158},""timestamp"":9503.399999976158},{""type"":""chart_hover"",""data"":{""x"":1067,""y"":528,""timestamp"":9510.300000011921},""timestamp"":9510.300000011921},{""type"":""chart_hover"",""data"":{""x"":1069,""y"":529,""timestamp"":9517.300000011921},""timestamp"":9517.300000011921},{""type"":""chart_hover"",""data"":{""x"":1070,""y"":529,""timestamp"":9524.199999988079},""timestamp"":9524.199999988079},{""type"":""chart_hover"",""data"":{""x"":1070,""y"":530,""timestamp"":9551.5},""timestamp"":9551.5},{""type"":""chart_hover"",""data"":{""x"":1071,""y"":530,""timestamp"":9559},""timestamp"":9559},{""type"":""chart_hover"",""data"":{""x"":1072,""y"":530,""timestamp"":9566.800000011921},""timestamp"":9566.800000011921},{""type"":""chart_hover"",""data"":{""x"":1072,""y"":531,""timestamp"":9572.899999976158},""timestamp"":9572.899999976158},{""type"":""chart_hover"",""data"":{""x"":1073,""y"":531,""timestamp"":9579.800000011921},""timestamp"":9579.800000011921},{""type"":""chart_hover"",""data"":{""x"":1075,""y"":531,""timestamp"":9586.800000011921},""timestamp"":9586.800000011921},{""type"":""chart_hover"",""data"":{""x"":1076,""y"":532,""timestamp"":9593.699999988079},""timestamp"":9593.699999988079},{""type"":""chart_hover"",""data"":{""x"":1077,""y"":533,""timestamp"":9600.599999964237},""timestamp"":9600.599999964237},{""type"":""chart_hover"",""data"":{""x"":1078,""y"":533,""timestamp"":9607.599999964237},""timestamp"":9607.599999964237},{""type"":""chart_hover"",""data"":{""x"":1079,""y"":534,""timestamp"":9614.5},""timestamp"":9614.5},{""type"":""chart_hover"",""data"":{""x"":1080,""y"":534,""timestamp"":9621.399999976158},""timestamp"":9621.399999976158},{""type"":""chart_hover"",""data"":{""x"":1081,""y"":534,""timestamp"":9628.399999976158},""timestamp"":9628.399999976158},{""type"":""chart_hover"",""data"":{""x"":1081,""y"":535,""timestamp"":9673.399999976158},""timestamp"":9673.399999976158},{""type"":""chart_hover"",""data"":{""x"":1082,""y"":535,""timestamp"":9957.599999964237},""timestamp"":9957.599999964237},{""type"":""chart_hover"",""data"":{""x"":1083,""y"":536,""timestamp"":9961.899999976158},""timestamp"":9961.899999976158},{""type"":""chart_hover"",""data"":{""x"":1087,""y"":538,""timestamp"":9968.899999976158},""timestamp"":9968.899999976158},{""type"":""chart_hover"",""data"":{""x"":1090,""y"":540,""timestamp"":9975.899999976158},""timestamp"":9975.899999976158},{""type"":""chart_hover"",""data"":{""x"":1095,""y"":542,""timestamp"":9982.899999976158},""timestamp"":9982.899999976158},{""type"":""chart_hover"",""data"":{""x"":1100,""y"":544,""timestamp"":9989.800000011921},""timestamp"":9989.800000011921},{""type"":""chart_hover"",""data"":{""x"":1106,""y"":547,""timestamp"":9996.699999988079},""timestamp"":9996.699999988079},{""type"":""chart_hover"",""data"":{""x"":1112,""y"":549,""timestamp"":10003.699999988079},""timestamp"":10003.699999988079},{""type"":""chart_hover"",""data"":{""x"":1117,""y"":550,""timestamp"":10010.599999964237},""timestamp"":10010.599999964237},{""type"":""chart_hover"",""data"":{""x"":1123,""y"":552,""timestamp"":10017.5},""timestamp"":10017.5},{""type"":""chart_hover"",""data"":{""x"":1129,""y"":553,""timestamp"":10024.5},""timestamp"":10024.5},{""type"":""chart_hover"",""data"":{""x"":1135,""y"":555,""timestamp"":10031.399999976158},""timestamp"":10031.399999976158},{""type"":""chart_hover"",""data"":{""x"":1139,""y"":556,""timestamp"":10038.399999976158},""timestamp"":10038.399999976158},{""type"":""chart_hover"",""data"":{""x"":1144,""y"":557,""timestamp"":10045.300000011921},""timestamp"":10045.300000011921},{""type"":""chart_hover"",""data"":{""x"":1147,""y"":558,""timestamp"":10052.300000011921},""timestamp"":10052.300000011921},{""type"":""chart_hover"",""data"":{""x"":1150,""y"":558,""timestamp"":10059.199999988079},""timestamp"":10059.199999988079},{""type"":""chart_hover"",""data"":{""x"":1151,""y"":559,""timestamp"":10066.199999988079},""timestamp"":10066.199999988079},{""type"":""chart_hover"",""data"":{""x"":1152,""y"":559,""timestamp"":10075.099999964237},""timestamp"":10075.099999964237},{""type"":""chart_hover"",""data"":{""x"":1153,""y"":559,""timestamp"":10208.599999964237},""timestamp"":10208.599999964237},{""type"":""chart_hover"",""data"":{""x"":1154,""y"":559,""timestamp"":10226.5},""timestamp"":10226.5},{""type"":""chart_hover"",""data"":{""x"":1155,""y"":559,""timestamp"":10232.899999976158},""timestamp"":10232.899999976158},{""type"":""chart_hover"",""data"":{""x"":1157,""y"":560,""timestamp"":10239.899999976158},""timestamp"":10239.899999976158},{""type"":""chart_hover"",""data"":{""x"":1160,""y"":560,""timestamp"":10246.800000011921},""timestamp"":10246.800000011921},{""type"":""chart_hover"",""data"":{""x"":1163,""y"":561,""timestamp"":10253.800000011921},""timestamp"":10253.800000011921},{""type"":""chart_hover"",""data"":{""x"":1165,""y"":562,""timestamp"":10260.800000011921},""timestamp"":10260.800000011921},{""type"":""chart_hover"",""data"":{""x"":1167,""y"":563,""timestamp"":10267.699999988079},""timestamp"":10267.699999988079},{""type"":""chart_hover"",""data"":{""x"":1170,""y"":563,""timestamp"":10274.699999988079},""timestamp"":10274.699999988079},{""type"":""chart_hover"",""data"":{""x"":1172,""y"":563,""timestamp"":10281.599999964237},""timestamp"":10281.599999964237},{""type"":""chart_hover"",""data"":{""x"":1173,""y"":564,""timestamp"":10288.599999964237},""timestamp"":10288.599999964237},{""type"":""chart_hover"",""data"":{""x"":1174,""y"":564,""timestamp"":10295.5},""timestamp"":10295.5},{""type"":""chart_hover"",""data"":{""x"":1175,""y"":564,""timestamp"":10302.5},""timestamp"":10302.5},{""type"":""chart_hover"",""data"":{""x"":1175,""y"":565,""timestamp"":10309.399999976158},""timestamp"":10309.399999976158},{""type"":""chart_hover"",""data"":{""x"":1176,""y"":565,""timestamp"":10330.199999988079},""timestamp"":10330.199999988079},{""type"":""chart_hover"",""data"":{""x"":1177,""y"":565,""timestamp"":10337.300000011921},""timestamp"":10337.300000011921},{""type"":""chart_hover"",""data"":{""x"":1179,""y"":566,""timestamp"":10344.099999964237},""timestamp"":10344.099999964237},{""type"":""chart_hover"",""data"":{""x"":1181,""y"":566,""timestamp"":10351.099999964237},""timestamp"":10351.099999964237},{""type"":""chart_hover"",""data"":{""x"":1182,""y"":566,""timestamp"":10358.099999964237},""timestamp"":10358.099999964237},{""type"":""chart_hover"",""data"":{""x"":1185,""y"":567,""timestamp"":10365},""timestamp"":10365},{""type"":""chart_hover"",""data"":{""x"":1188,""y"":567,""timestamp"":10371.899999976158},""timestamp"":10371.899999976158},{""type"":""chart_hover"",""data"":{""x"":1191,""y"":568,""timestamp"":10378.899999976158},""timestamp"":10378.899999976158},{""type"":""chart_hover"",""data"":{""x"":1195,""y"":568,""timestamp"":10385.800000011921},""timestamp"":10385.800000011921},{""type"":""chart_hover"",""data"":{""x"":1198,""y"":569,""timestamp"":10392.699999988079},""timestamp"":10392.699999988079},{""type"":""chart_hover"",""data"":{""x"":1202,""y"":570,""timestamp"":10399.699999988079},""timestamp"":10399.699999988079},{""type"":""chart_hover"",""data"":{""x"":1207,""y"":571,""timestamp"":10406.599999964237},""timestamp"":10406.599999964237},{""type"":""chart_hover"",""data"":{""x"":1211,""y"":572,""timestamp"":10413.699999988079},""timestamp"":10413.699999988079},{""type"":""chart_hover"",""data"":{""x"":1216,""y"":573,""timestamp"":10420.599999964237},""timestamp"":10420.599999964237},{""type"":""chart_hover"",""data"":{""x"":1220,""y"":575,""timestamp"":10427.5},""timestamp"":10427.5},{""type"":""chart_hover"",""data"":{""x"":1224,""y"":576,""timestamp"":10434.399999976158},""timestamp"":10434.399999976158},{""type"":""chart_hover"",""data"":{""x"":1228,""y"":578,""timestamp"":10441.5},""timestamp"":10441.5},{""type"":""chart_hover"",""data"":{""x"":1232,""y"":580,""timestamp"":10448.399999976158},""timestamp"":10448.399999976158},{""type"":""chart_hover"",""data"":{""x"":1236,""y"":582,""timestamp"":10455.300000011921},""timestamp"":10455.300000011921},{""type"":""chart_hover"",""data"":{""x"":1239,""y"":583,""timestamp"":10462.199999988079},""timestamp"":10462.199999988079},{""type"":""chart_hover"",""data"":{""x"":1244,""y"":584,""timestamp"":10469.199999988079},""timestamp"":10469.199999988079},{""type"":""chart_hover"",""data"":{""x"":1246,""y"":586,""timestamp"":10476.199999988079},""timestamp"":10476.199999988079},{""type"":""chart_hover"",""data"":{""x"":1250,""y"":587,""timestamp"":10483.099999964237},""timestamp"":10483.099999964237},{""type"":""chart_hover"",""data"":{""x"":1254,""y"":589,""timestamp"":10490.099999964237},""timestamp"":10490.099999964237},{""type"":""chart_hover"",""data"":{""x"":1259,""y"":590,""timestamp"":10497},""timestamp"":10497},{""type"":""chart_hover"",""data"":{""x"":1262,""y"":592,""timestamp"":10504},""timestamp"":10504},{""type"":""chart_hover"",""data"":{""x"":1266,""y"":593,""timestamp"":10510.899999976158},""timestamp"":10510.899999976158},{""type"":""chart_hover"",""data"":{""x"":1269,""y"":594,""timestamp"":10517.800000011921},""timestamp"":10517.800000011921},{""type"":""chart_hover"",""data"":{""x"":1271,""y"":594,""timestamp"":10524.800000011921},""timestamp"":10524.800000011921},{""type"":""chart_hover"",""data"":{""x"":1273,""y"":595,""timestamp"":10531.899999976158},""timestamp"":10531.899999976158},{""type"":""chart_hover"",""data"":{""x"":1274,""y"":595,""timestamp"":10538.699999988079},""timestamp"":10538.699999988079},{""type"":""chart_hover"",""data"":{""x"":1275,""y"":595,""timestamp"":10545.599999964237},""timestamp"":10545.599999964237},{""type"":""chart_hover"",""data"":{""x"":1276,""y"":595,""timestamp"":10604.399999976158},""timestamp"":10604.5},{""type"":""chart_hover"",""data"":{""x"":1276,""y"":596,""timestamp"":10612.300000011921},""timestamp"":10612.300000011921},{""type"":""chart_hover"",""data"":{""x"":1277,""y"":596,""timestamp"":10615.199999988079},""timestamp"":10615.199999988079},{""type"":""chart_hover"",""data"":{""x"":1278,""y"":597,""timestamp"":10624.199999988079},""timestamp"":10624.199999988079},{""type"":""chart_hover"",""data"":{""x"":1279,""y"":597,""timestamp"":10629.5},""timestamp"":10629.5},{""type"":""chart_hover"",""data"":{""x"":1280,""y"":598,""timestamp"":10636},""timestamp"":10636},{""type"":""chart_hover"",""data"":{""x"":1281,""y"":598,""timestamp"":10642.899999976158},""timestamp"":10642.899999976158},{""type"":""chart_leave"",""data"":{""timestamp"":10650},""timestamp"":10650},{""type"":""chart_enter"",""data"":{""timestamp"":23616.30000001192},""timestamp"":23616.30000001192},{""type"":""chart_hover"",""data"":{""x"":1150,""y"":591,""timestamp"":23616.30000001192},""timestamp"":23616.30000001192},{""type"":""chart_hover"",""data"":{""x"":1162,""y"":575,""timestamp"":23623.30000001192},""timestamp"":23623.30000001192},{""type"":""chart_hover"",""data"":{""x"":1175,""y"":558,""timestamp"":23630.19999998808},""timestamp"":23630.19999998808},{""type"":""chart_hover"",""data"":{""x"":1186,""y"":542,""timestamp"":23637.19999998808},""timestamp"":23637.19999998808},{""type"":""chart_hover"",""data"":{""x"":1199,""y"":523,""timestamp"":23644.19999998808},""timestamp"":23644.19999998808},{""type"":""chart_hover"",""data"":{""x"":1212,""y"":503,""timestamp"":23651},""timestamp"":23651},{""type"":""chart_hover"",""data"":{""x"":1224,""y"":485,""timestamp"":23657.899999976158},""timestamp"":23657.899999976158},{""type"":""chart_hover"",""data"":{""x"":1233,""y"":466,""timestamp"":23664.899999976158},""timestamp"":23664.899999976158},{""type"":""chart_hover"",""data"":{""x"":1241,""y"":448,""timestamp"":23671.899999976158},""timestamp"":23671.899999976158},{""type"":""chart_hover"",""data"":{""x"":1249,""y"":432,""timestamp"":23678.80000001192},""timestamp"":23678.80000001192},{""type"":""chart_hover"",""data"":{""x"":1260,""y"":415,""timestamp"":23685.80000001192},""timestamp"":23685.80000001192},{""type"":""chart_hover"",""data"":{""x"":1273,""y"":395,""timestamp"":23692.69999998808},""timestamp"":23692.69999998808},{""type"":""chart_hover"",""data"":{""x"":1286,""y"":377,""timestamp"":23699.69999998808},""timestamp"":23699.69999998808},{""type"":""chart_hover"",""data"":{""x"":1299,""y"":360,""timestamp"":23706.599999964237},""timestamp"":23706.599999964237},{""type"":""chart_hover"",""data"":{""x"":1312,""y"":344,""timestamp"":23713.5},""timestamp"":23713.5},{""type"":""chart_hover"",""data"":{""x"":1323,""y"":329,""timestamp"":23720.5},""timestamp"":23720.5},{""type"":""chart_hover"",""data"":{""x"":1335,""y"":315,""timestamp"":23727.5},""timestamp"":23727.5},{""type"":""chart_hover"",""data"":{""x"":1345,""y"":300,""timestamp"":23734.399999976158},""timestamp"":23734.399999976158},{""type"":""chart_hover"",""data"":{""x"":1355,""y"":286,""timestamp"":23741.399999976158},""timestamp"":23741.399999976158},{""type"":""chart_hover"",""data"":{""x"":1364,""y"":273,""timestamp"":23748.30000001192},""timestamp"":23748.30000001192},{""type"":""chart_hover"",""data"":{""x"":1371,""y"":263,""timestamp"":23755.30000001192},""timestamp"":23755.30000001192},{""type"":""chart_hover"",""data"":{""x"":1377,""y"":255,""timestamp"":23762.30000001192},""timestamp"":23762.30000001192},{""type"":""chart_hover"",""data"":{""x"":1381,""y"":250,""timestamp"":23769.099999964237},""timestamp"":23769.099999964237},{""type"":""chart_hover"",""data"":{""x"":1383,""y"":246,""timestamp"":23776.099999964237},""timestamp"":23776.099999964237},{""type"":""chart_hover"",""data"":{""x"":1385,""y"":243,""timestamp"":23783.099999964237},""timestamp"":23783.099999964237},{""type"":""chart_hover"",""data"":{""x"":1386,""y"":242,""timestamp"":23790.099999964237},""timestamp"":23790.099999964237},{""type"":""chart_hover"",""data"":{""x"":1387,""y"":241,""timestamp"":23797},""timestamp"":23797},{""type"":""chart_hover"",""data"":{""x"":1388,""y"":240,""timestamp"":23803.899999976158},""timestamp"":23803.899999976158},{""type"":""chart_hover"",""data"":{""x"":1389,""y"":240,""timestamp"":23810.899999976158},""timestamp"":23810.899999976158},{""type"":""chart_hover"",""data"":{""x"":1390,""y"":240,""timestamp"":23845.599999964237},""timestamp"":23845.599999964237},{""type"":""chart_hover"",""data"":{""x"":1391,""y"":240,""timestamp"":23852.599999964237},""timestamp"":23852.599999964237},{""type"":""chart_hover"",""data"":{""x"":1392,""y"":241,""timestamp"":23859.5},""timestamp"":23859.5},{""type"":""chart_hover"",""data"":{""x"":1393,""y"":243,""timestamp"":23866.5},""timestamp"":23866.5},{""type"":""chart_hover"",""data"":{""x"":1395,""y"":246,""timestamp"":23873.399999976158},""timestamp"":23873.399999976158},{""type"":""chart_hover"",""data"":{""x"":1397,""y"":248,""timestamp"":23880.30000001192},""timestamp"":23880.30000001192},{""type"":""chart_hover"",""data"":{""x"":1398,""y"":251,""timestamp"":23887.30000001192},""timestamp"":23887.30000001192},{""type"":""chart_hover"",""data"":{""x"":1398,""y"":253,""timestamp"":23894.30000001192},""timestamp"":23894.30000001192},{""type"":""chart_hover"",""data"":{""x"":1399,""y"":255,""timestamp"":23901.19999998808},""timestamp"":23901.19999998808},{""type"":""chart_hover"",""data"":{""x"":1399,""y"":257,""timestamp"":23908.19999998808},""timestamp"":23908.19999998808},{""type"":""chart_hover"",""data"":{""x"":1399,""y"":259,""timestamp"":23915.099999964237},""timestamp"":23915.099999964237},{""type"":""chart_hover"",""data"":{""x"":1398,""y"":261,""timestamp"":23922.099999964237},""timestamp"":23922.099999964237},{""type"":""chart_hover"",""data"":{""x"":1396,""y"":263,""timestamp"":23929},""timestamp"":23929},{""type"":""chart_hover"",""data"":{""x"":1393,""y"":265,""timestamp"":23935.80000001192},""timestamp"":23935.80000001192},{""type"":""chart_hover"",""data"":{""x"":1388,""y"":267,""timestamp"":23942.80000001192},""timestamp"":23942.80000001192},{""type"":""chart_hover"",""data"":{""x"":1383,""y"":269,""timestamp"":23949.69999998808},""timestamp"":23949.69999998808},{""type"":""chart_hover"",""data"":{""x"":1376,""y"":271,""timestamp"":23956.69999998808},""timestamp"":23956.69999998808},{""type"":""chart_hover"",""data"":{""x"":1368,""y"":272,""timestamp"":23963.599999964237},""timestamp"":23963.599999964237},{""type"":""chart_hover"",""data"":{""x"":1362,""y"":272,""timestamp"":23970.599999964237},""timestamp"":23970.599999964237},{""type"":""chart_hover"",""data"":{""x"":1355,""y"":273,""timestamp"":23977.599999964237},""timestamp"":23977.599999964237},{""type"":""chart_hover"",""data"":{""x"":1351,""y"":273,""timestamp"":23984.5},""timestamp"":23984.5},{""type"":""chart_hover"",""data"":{""x"":1347,""y"":272,""timestamp"":23991.5},""timestamp"":23991.5},{""type"":""chart_hover"",""data"":{""x"":1345,""y"":271,""timestamp"":23998.399999976158},""timestamp"":23998.399999976158},{""type"":""chart_hover"",""data"":{""x"":1343,""y"":269,""timestamp"":24005.30000001192},""timestamp"":24005.30000001192},{""type"":""chart_hover"",""data"":{""x"":1340,""y"":268,""timestamp"":24012.30000001192},""timestamp"":24012.30000001192},{""type"":""chart_hover"",""data"":{""x"":1337,""y"":266,""timestamp"":24019.19999998808},""timestamp"":24019.19999998808},{""type"":""chart_hover"",""data"":{""x"":1335,""y"":264,""timestamp"":24026.19999998808},""timestamp"":24026.19999998808},{""type"":""chart_hover"",""data"":{""x"":1333,""y"":262,""timestamp"":24033.099999964237},""timestamp"":24033.099999964237},{""type"":""chart_hover"",""data"":{""x"":1331,""y"":260,""timestamp"":24040.099999964237},""timestamp"":24040.099999964237},{""type"":""chart_hover"",""data"":{""x"":1331,""y"":257,""timestamp"":24047.19999998808},""timestamp"":24047.19999998808},{""type"":""chart_hover"",""data"":{""x"":1330,""y"":255,""timestamp"":24054},""timestamp"":24054},{""type"":""chart_hover"",""data"":{""x"":1330,""y"":253,""timestamp"":24060.899999976158},""timestamp"":24060.899999976158},{""type"":""chart_hover"",""data"":{""x"":1329,""y"":250,""timestamp"":24067.899999976158},""timestamp"":24067.899999976158},{""type"":""chart_hover"",""data"":{""x"":1329,""y"":249,""timestamp"":24074.899999976158},""timestamp"":24074.899999976158},{""type"":""chart_hover"",""data"":{""x"":1329,""y"":247,""timestamp"":24081.80000001192},""timestamp"":24081.80000001192},{""type"":""chart_hover"",""data"":{""x"":1329,""y"":245,""timestamp"":24088.69999998808},""timestamp"":24088.69999998808},{""type"":""chart_hover"",""data"":{""x"":1329,""y"":242,""timestamp"":24095.69999998808},""timestamp"":24095.69999998808},{""type"":""chart_hover"",""data"":{""x"":1330,""y"":240,""timestamp"":24102.69999998808},""timestamp"":24102.69999998808},{""type"":""chart_hover"",""data"":{""x"":1331,""y"":237,""timestamp"":24109.5},""timestamp"":24109.5},{""type"":""chart_hover"",""data"":{""x"":1331,""y"":234,""timestamp"":24116.599999964237},""timestamp"":24116.599999964237},{""type"":""chart_hover"",""data"":{""x"":1331,""y"":232,""timestamp"":24123.399999976158},""timestamp"":24123.399999976158},{""type"":""chart_hover"",""data"":{""x"":1332,""y"":229,""timestamp"":24130.69999998808},""timestamp"":24130.69999998808},{""type"":""chart_hover"",""data"":{""x"":1332,""y"":227,""timestamp"":24137.599999964237},""timestamp"":24137.599999964237},{""type"":""chart_hover"",""data"":{""x"":1333,""y"":224,""timestamp"":24144.599999964237},""timestamp"":24144.599999964237},{""type"":""chart_hover"",""data"":{""x"":1334,""y"":220,""timestamp"":24151.5},""timestamp"":24151.5},{""type"":""chart_hover"",""data"":{""x"":1334,""y"":217,""timestamp"":24158.19999998808},""timestamp"":24158.19999998808},{""type"":""chart_hover"",""data"":{""x"":1334,""y"":214,""timestamp"":24165.30000001192},""timestamp"":24165.30000001192},{""type"":""chart_hover"",""data"":{""x"":1335,""y"":211,""timestamp"":24172.19999998808},""timestamp"":24172.19999998808},{""type"":""chart_hover"",""data"":{""x"":1335,""y"":209,""timestamp"":24179},""timestamp"":24179},{""type"":""chart_hover"",""data"":{""x"":1335,""y"":207,""timestamp"":24186},""timestamp"":24186},{""type"":""chart_hover"",""data"":{""x"":1335,""y"":205,""timestamp"":24193},""timestamp"":24193.099999964237},{""type"":""chart_hover"",""data"":{""x"":1333,""y"":203,""timestamp"":24200},""timestamp"":24200},{""type"":""chart_hover"",""data"":{""x"":1331,""y"":201,""timestamp"":24206.899999976158},""timestamp"":24206.899999976158},{""type"":""chart_hover"",""data"":{""x"":1329,""y"":200,""timestamp"":24213.899999976158},""timestamp"":24213.899999976158},{""type"":""chart_hover"",""data"":{""x"":1327,""y"":198,""timestamp"":24220.80000001192},""timestamp"":24220.80000001192},{""type"":""chart_hover"",""data"":{""x"":1325,""y"":196,""timestamp"":24227.69999998808},""timestamp"":24227.69999998808},{""type"":""chart_hover"",""data"":{""x"":1323,""y"":196,""timestamp"":24234.599999964237},""timestamp"":24234.599999964237},{""type"":""chart_hover"",""data"":{""x"":1322,""y"":195,""timestamp"":24241.599999964237},""timestamp"":24241.599999964237},{""type"":""chart_hover"",""data"":{""x"":1321,""y"":194,""timestamp"":24248.5},""timestamp"":24248.5},{""type"":""chart_hover"",""data"":{""x"":1320,""y"":193,""timestamp"":24255.599999964237},""timestamp"":24255.599999964237},{""type"":""chart_hover"",""data"":{""x"":1319,""y"":193,""timestamp"":24305.599999964237},""timestamp"":24305.599999964237},{""type"":""chart_hover"",""data"":{""x"":1319,""y"":192,""timestamp"":24311.099999964237},""timestamp"":24311.099999964237},{""type"":""chart_hover"",""data"":{""x"":1318,""y"":192,""timestamp"":24318},""timestamp"":24318},{""type"":""chart_hover"",""data"":{""x"":1317,""y"":191,""timestamp"":24324.899999976158},""timestamp"":24324.899999976158},{""type"":""chart_hover"",""data"":{""x"":1316,""y"":190,""timestamp"":24332},""timestamp"":24332},{""type"":""chart_hover"",""data"":{""x"":1315,""y"":190,""timestamp"":24339},""timestamp"":24339},{""type"":""chart_hover"",""data"":{""x"":1314,""y"":189,""timestamp"":24345.80000001192},""timestamp"":24345.80000001192},{""type"":""chart_hover"",""data"":{""x"":1313,""y"":189,""timestamp"":24352.899999976158},""timestamp"":24352.899999976158},{""type"":""chart_hover"",""data"":{""x"":1313,""y"":188,""timestamp"":24359.80000001192},""timestamp"":24359.80000001192},{""type"":""chart_hover"",""data"":{""x"":1311,""y"":187,""timestamp"":24366.599999964237},""timestamp"":24366.599999964237},{""type"":""chart_hover"",""data"":{""x"":1310,""y"":187,""timestamp"":24376.099999964237},""timestamp"":24376.099999964237},{""type"":""chart_hover"",""data"":{""x"":1310,""y"":186,""timestamp"":24396.19999998808},""timestamp"":24396.19999998808},{""type"":""chart_hover"",""data"":{""x"":1309,""y"":186,""timestamp"":24401.399999976158},""timestamp"":24401.399999976158},{""type"":""chart_hover"",""data"":{""x"":1309,""y"":185,""timestamp"":24409.099999964237},""timestamp"":24409.099999964237},{""type"":""chart_hover"",""data"":{""x"":1308,""y"":185,""timestamp"":24415.30000001192},""timestamp"":24415.30000001192},{""type"":""chart_hover"",""data"":{""x"":1307,""y"":185,""timestamp"":24423.30000001192},""timestamp"":24423.30000001192},{""type"":""chart_hover"",""data"":{""x"":1307,""y"":184,""timestamp"":24429.19999998808},""timestamp"":24429.19999998808},{""type"":""chart_hover"",""data"":{""x"":1306,""y"":183,""timestamp"":24436.19999998808},""timestamp"":24436.19999998808},{""type"":""chart_hover"",""data"":{""x"":1305,""y"":183,""timestamp"":24444.19999998808},""timestamp"":24444.19999998808},{""type"":""chart_hover"",""data"":{""x"":1304,""y"":183,""timestamp"":24456.30000001192},""timestamp"":24456.30000001192},{""type"":""chart_hover"",""data"":{""x"":1304,""y"":182,""timestamp"":24460.19999998808},""timestamp"":24460.19999998808},{""type"":""chart_hover"",""data"":{""x"":1303,""y"":182,""timestamp"":24483.399999976158},""timestamp"":24483.399999976158},{""type"":""chart_hover"",""data"":{""x"":1303,""y"":181,""timestamp"":24544.399999976158},""timestamp"":24544.399999976158},{""type"":""chart_hover"",""data"":{""x"":1302,""y"":181,""timestamp"":24547.399999976158},""timestamp"":24547.399999976158},{""type"":""chart_hover"",""data"":{""x"":1301,""y"":181,""timestamp"":24554.399999976158},""timestamp"":24554.399999976158},{""type"":""chart_hover"",""data"":{""x"":1301,""y"":180,""timestamp"":24565.399999976158},""timestamp"":24565.399999976158},{""type"":""chart_hover"",""data"":{""x"":1300,""y"":180,""timestamp"":24570.099999964237},""timestamp"":24570.099999964237},{""type"":""chart_hover"",""data"":{""x"":1300,""y"":179,""timestamp"":24589.099999964237},""timestamp"":24589.099999964237},{""type"":""chart_hover"",""data"":{""x"":1300,""y"":180,""timestamp"":24681.30000001192},""timestamp"":24681.30000001192},{""type"":""chart_hover"",""data"":{""x"":1301,""y"":180,""timestamp"":24686.399999976158},""timestamp"":24686.399999976158},{""type"":""chart_hover"",""data"":{""x"":1302,""y"":180,""timestamp"":24693.30000001192},""timestamp"":24693.30000001192},{""type"":""chart_hover"",""data"":{""x"":1303,""y"":181,""timestamp"":24700.30000001192},""timestamp"":24700.30000001192},{""type"":""chart_hover"",""data"":{""x"":1305,""y"":181,""timestamp"":24707.19999998808},""timestamp"":24707.19999998808},{""type"":""chart_hover"",""data"":{""x"":1306,""y"":182,""timestamp"":24714.19999998808},""timestamp"":24714.19999998808},{""type"":""chart_hover"",""data"":{""x"":1309,""y"":182,""timestamp"":24721.099999964237},""timestamp"":24721.099999964237},{""type"":""chart_hover"",""data"":{""x"":1312,""y"":182,""timestamp"":24728},""timestamp"":24728},{""type"":""chart_hover"",""data"":{""x"":1315,""y"":182,""timestamp"":24735},""timestamp"":24735},{""type"":""chart_hover"",""data"":{""x"":1319,""y"":181,""timestamp"":24742},""timestamp"":24742},{""type"":""chart_hover"",""data"":{""x"":1324,""y"":179,""timestamp"":24748.899999976158},""timestamp"":24748.899999976158},{""type"":""chart_hover"",""data"":{""x"":1329,""y"":177,""timestamp"":24755.80000001192},""timestamp"":24755.80000001192},{""type"":""chart_hover"",""data"":{""x"":1333,""y"":175,""timestamp"":24762.80000001192},""timestamp"":24762.80000001192},{""type"":""chart_hover"",""data"":{""x"":1338,""y"":173,""timestamp"":24769.69999998808},""timestamp"":24769.69999998808},{""type"":""chart_hover"",""data"":{""x"":1342,""y"":171,""timestamp"":24776.599999964237},""timestamp"":24776.599999964237},{""type"":""chart_hover"",""data"":{""x"":1345,""y"":170,""timestamp"":24783.599999964237},""timestamp"":24783.599999964237},{""type"":""chart_hover"",""data"":{""x"":1348,""y"":169,""timestamp"":24790.599999964237},""timestamp"":24790.599999964237},{""type"":""chart_hover"",""data"":{""x"":1350,""y"":168,""timestamp"":24797.5},""timestamp"":24797.5},{""type"":""chart_hover"",""data"":{""x"":1352,""y"":167,""timestamp"":24804.399999976158},""timestamp"":24804.399999976158},{""type"":""chart_hover"",""data"":{""x"":1354,""y"":166,""timestamp"":24811.399999976158},""timestamp"":24811.399999976158},{""type"":""chart_hover"",""data"":{""x"":1355,""y"":166,""timestamp"":24818.399999976158},""timestamp"":24818.399999976158},{""type"":""chart_hover"",""data"":{""x"":1356,""y"":166,""timestamp"":24825.30000001192},""timestamp"":24825.30000001192},{""type"":""chart_hover"",""data"":{""x"":1357,""y"":166,""timestamp"":24832.19999998808},""timestamp"":24832.19999998808},{""type"":""chart_hover"",""data"":{""x"":1358,""y"":166,""timestamp"":24839.099999964237},""timestamp"":24839.099999964237},{""type"":""chart_hover"",""data"":{""x"":1360,""y"":165,""timestamp"":24846.19999998808},""timestamp"":24846.19999998808},{""type"":""chart_hover"",""data"":{""x"":1361,""y"":165,""timestamp"":24853.099999964237},""timestamp"":24853.099999964237},{""type"":""chart_hover"",""data"":{""x"":1363,""y"":165,""timestamp"":24860.099999964237},""timestamp"":24860.099999964237},{""type"":""chart_hover"",""data"":{""x"":1365,""y"":165,""timestamp"":24867},""timestamp"":24867},{""type"":""chart_hover"",""data"":{""x"":1367,""y"":165,""timestamp"":24874},""timestamp"":24874},{""type"":""chart_hover"",""data"":{""x"":1369,""y"":165,""timestamp"":24881},""timestamp"":24881},{""type"":""chart_hover"",""data"":{""x"":1371,""y"":165,""timestamp"":24887.80000001192},""timestamp"":24887.80000001192},{""type"":""chart_hover"",""data"":{""x"":1372,""y"":164,""timestamp"":24894.80000001192},""timestamp"":24894.80000001192},{""type"":""chart_hover"",""data"":{""x"":1374,""y"":164,""timestamp"":24901.69999998808},""timestamp"":24901.69999998808},{""type"":""chart_hover"",""data"":{""x"":1375,""y"":164,""timestamp"":24908.69999998808},""timestamp"":24908.69999998808},{""type"":""chart_hover"",""data"":{""x"":1377,""y"":164,""timestamp"":24915.599999964237},""timestamp"":24915.599999964237},{""type"":""chart_hover"",""data"":{""x"":1378,""y"":164,""timestamp"":24922.599999964237},""timestamp"":24922.599999964237},{""type"":""chart_hover"",""data"":{""x"":1380,""y"":163,""timestamp"":24929.5},""timestamp"":24929.5},{""type"":""chart_hover"",""data"":{""x"":1382,""y"":163,""timestamp"":24936.5},""timestamp"":24936.5},{""type"":""chart_hover"",""data"":{""x"":1383,""y"":163,""timestamp"":24943.399999976158},""timestamp"":24943.399999976158},{""type"":""chart_hover"",""data"":{""x"":1385,""y"":163,""timestamp"":24950.399999976158},""timestamp"":24950.399999976158},{""type"":""chart_hover"",""data"":{""x"":1386,""y"":163,""timestamp"":24964.19999998808},""timestamp"":24964.19999998808},{""type"":""chart_hover"",""data"":{""x"":1387,""y"":163,""timestamp"":25006},""timestamp"":25006},{""type"":""chart_click"",""data"":{""x"":1387,""y"":163,""timestamp"":25197.19999998808},""timestamp"":25197.19999998808},{""type"":""chart_hover"",""data"":{""x"":1387,""y"":163,""timestamp"":25207.5},""timestamp"":25207.5},{""type"":""chart_hover"",""data"":{""x"":1387,""y"":164,""timestamp"":25215},""timestamp"":25215},{""type"":""chart_hover"",""data"":{""x"":1386,""y"":166,""timestamp"":25221.399999976158},""timestamp"":25221.399999976158},{""type"":""chart_hover"",""data"":{""x"":1385,""y"":168,""timestamp"":25228.399999976158},""timestamp"":25228.399999976158},{""type"":""chart_hover"",""data"":{""x"":1383,""y"":171,""timestamp"":25235.19999998808},""timestamp"":25235.30000001192},{""type"":""chart_hover"",""data"":{""x"":1381,""y"":173,""timestamp"":25242.30000001192},""timestamp"":25242.30000001192},{""type"":""chart_hover"",""data"":{""x"":1379,""y"":176,""timestamp"":25249.19999998808},""timestamp"":25249.19999998808},{""type"":""chart_hover"",""data"":{""x"":1376,""y"":179,""timestamp"":25256.19999998808},""timestamp"":25256.19999998808},{""type"":""chart_hover"",""data"":{""x"":1374,""y"":180,""timestamp"":25263.099999964237},""timestamp"":25263.099999964237},{""type"":""chart_hover"",""data"":{""x"":1371,""y"":183,""timestamp"":25270.099999964237},""timestamp"":25270.099999964237},{""type"":""chart_hover"",""data"":{""x"":1368,""y"":185,""timestamp"":25277.099999964237},""timestamp"":25277.099999964237},{""type"":""chart_hover"",""data"":{""x"":1365,""y"":186,""timestamp"":25283.899999976158},""timestamp"":25283.899999976158},{""type"":""chart_hover"",""data"":{""x"":1362,""y"":188,""timestamp"":25290.80000001192},""timestamp"":25290.80000001192},{""type"":""chart_hover"",""data"":{""x"":1358,""y"":189,""timestamp"":25297.899999976158},""timestamp"":25297.899999976158},{""type"":""chart_hover"",""data"":{""x"":1355,""y"":191,""timestamp"":25304.80000001192},""timestamp"":25304.80000001192},{""type"":""chart_hover"",""data"":{""x"":1352,""y"":192,""timestamp"":25311.80000001192},""timestamp"":25311.80000001192},{""type"":""chart_hover"",""data"":{""x"":1348,""y"":194,""timestamp"":25318.69999998808},""timestamp"":25318.69999998808},{""type"":""chart_hover"",""data"":{""x"":1344,""y"":195,""timestamp"":25325.69999998808},""timestamp"":25325.69999998808},{""type"":""chart_hover"",""data"":{""x"":1340,""y"":195,""timestamp"":25332.5},""timestamp"":25332.5},{""type"":""chart_hover"",""data"":{""x"":1337,""y"":196,""timestamp"":25339.5},""timestamp"":25339.5},{""type"":""chart_hover"",""data"":{""x"":1335,""y"":196,""timestamp"":25346.5},""timestamp"":25346.5},{""type"":""chart_hover"",""data"":{""x"":1332,""y"":196,""timestamp"":25353.5},""timestamp"":25353.599999964237},{""type"":""chart_hover"",""data"":{""x"":1330,""y"":196,""timestamp"":25360.5},""timestamp"":25360.5},{""type"":""chart_hover"",""data"":{""x"":1328,""y"":196,""timestamp"":25367.5},""timestamp"":25367.5},{""type"":""chart_hover"",""data"":{""x"":1326,""y"":195,""timestamp"":25374.30000001192},""timestamp"":25374.30000001192},{""type"":""chart_hover"",""data"":{""x"":1325,""y"":195,""timestamp"":25381.19999998808},""timestamp"":25381.19999998808},{""type"":""chart_hover"",""data"":{""x"":1324,""y"":195,""timestamp"":25390.19999998808},""timestamp"":25390.19999998808},{""type"":""chart_hover"",""data"":{""x"":1324,""y"":194,""timestamp"":25396.19999998808},""timestamp"":25396.19999998808},{""type"":""chart_hover"",""data"":{""x"":1323,""y"":194,""timestamp"":25402.19999998808},""timestamp"":25402.19999998808},{""type"":""chart_hover"",""data"":{""x"":1322,""y"":194,""timestamp"":25413.5},""timestamp"":25413.5},{""type"":""chart_hover"",""data"":{""x"":1322,""y"":193,""timestamp"":25421.19999998808},""timestamp"":25421.19999998808},{""type"":""chart_hover"",""data"":{""x"":1321,""y"":193,""timestamp"":25436.899999976158},""timestamp"":25436.899999976158},{""type"":""chart_hover"",""data"":{""x"":1321,""y"":192,""timestamp"":25443.69999998808},""timestamp"":25443.69999998808},{""type"":""chart_hover"",""data"":{""x"":1320,""y"":192,""timestamp"":25454.30000001192},""timestamp"":25454.30000001192},{""type"":""chart_hover"",""data"":{""x"":1319,""y"":192,""timestamp"":25480.5},""timestamp"":25480.5},{""type"":""chart_hover"",""data"":{""x"":1319,""y"":191,""timestamp"":25487.19999998808},""timestamp"":25487.19999998808},{""type"":""chart_hover"",""data"":{""x"":1317,""y"":191,""timestamp"":25492.30000001192},""timestamp"":25492.30000001192},{""type"":""chart_hover"",""data"":{""x"":1316,""y"":191,""timestamp"":25499.399999976158},""timestamp"":25499.399999976158},{""type"":""chart_hover"",""data"":{""x"":1314,""y"":190,""timestamp"":25506.30000001192},""timestamp"":25506.30000001192},{""type"":""chart_hover"",""data"":{""x"":1312,""y"":190,""timestamp"":25513.19999998808},""timestamp"":25513.19999998808},{""type"":""chart_hover"",""data"":{""x"":1311,""y"":190,""timestamp"":25520.099999964237},""timestamp"":25520.099999964237},{""type"":""chart_hover"",""data"":{""x"":1310,""y"":190,""timestamp"":25527.19999998808},""timestamp"":25527.19999998808},{""type"":""chart_hover"",""data"":{""x"":1309,""y"":190,""timestamp"":25534.099999964237},""timestamp"":25534.099999964237},{""type"":""chart_hover"",""data"":{""x"":1308,""y"":190,""timestamp"":25541},""timestamp"":25541},{""type"":""chart_hover"",""data"":{""x"":1307,""y"":190,""timestamp"":25548},""timestamp"":25548},{""type"":""chart_hover"",""data"":{""x"":1307,""y"":189,""timestamp"":25555.30000001192},""timestamp"":25555.30000001192},{""type"":""chart_hover"",""data"":{""x"":1306,""y"":189,""timestamp"":25561.899999976158},""timestamp"":25561.899999976158},{""type"":""chart_hover"",""data"":{""x"":1304,""y"":189,""timestamp"":25568.80000001192},""timestamp"":25568.80000001192},{""type"":""chart_hover"",""data"":{""x"":1294,""y"":186,""timestamp"":25687.80000001192},""timestamp"":25687.80000001192},{""type"":""chart_hover"",""data"":{""x"":1293,""y"":186,""timestamp"":25693.899999976158},""timestamp"":25693.899999976158},{""type"":""chart_click"",""data"":{""x"":1293,""y"":186,""timestamp"":26123.599999964237},""timestamp"":26123.599999964237},{""type"":""chart_hover"",""data"":{""x"":1294,""y"":186,""timestamp"":26991.599999964237},""timestamp"":26991.599999964237},{""type"":""chart_click"",""data"":{""x"":1294,""y"":186,""timestamp"":27539.30000001192},""timestamp"":27539.30000001192},{""type"":""chart_hover"",""data"":{""x"":1294,""y"":187,""timestamp"":27912.599999964237},""timestamp"":27912.599999964237},{""type"":""chart_hover"",""data"":{""x"":1295,""y"":187,""timestamp"":27931.399999976158},""timestamp"":27931.399999976158},{""type"":""chart_hover"",""data"":{""x"":1295,""y"":188,""timestamp"":27944.30000001192},""timestamp"":27944.30000001192},{""type"":""chart_hover"",""data"":{""x"":1296,""y"":188,""timestamp"":27951.19999998808},""timestamp"":27951.19999998808},{""type"":""chart_hover"",""data"":{""x"":1297,""y"":189,""timestamp"":27966.099999964237},""timestamp"":27966.19999998808},{""type"":""chart_hover"",""data"":{""x"":1297,""y"":190,""timestamp"":27987.099999964237},""timestamp"":27987.099999964237},{""type"":""chart_hover"",""data"":{""x"":1298,""y"":190,""timestamp"":27993.899999976158},""timestamp"":27993.899999976158},{""type"":""chart_hover"",""data"":{""x"":1298,""y"":191,""timestamp"":28000.899999976158},""timestamp"":28000.899999976158},{""type"":""chart_hover"",""data"":{""x"":1299,""y"":192,""timestamp"":28007.899999976158},""timestamp"":28007.899999976158},{""type"":""chart_hover"",""data"":{""x"":1299,""y"":193,""timestamp"":28014.80000001192},""timestamp"":28014.80000001192},{""type"":""chart_hover"",""data"":{""x"":1300,""y"":194,""timestamp"":28021.69999998808},""timestamp"":28021.69999998808},{""type"":""chart_hover"",""data"":{""x"":1300,""y"":195,""timestamp"":28028.599999964237},""timestamp"":28028.599999964237},{""type"":""chart_hover"",""data"":{""x"":1301,""y"":196,""timestamp"":28035.599999964237},""timestamp"":28035.599999964237},{""type"":""chart_hover"",""data"":{""x"":1301,""y"":198,""timestamp"":28042.5},""timestamp"":28042.5},{""type"":""chart_hover"",""data"":{""x"":1302,""y"":199,""timestamp"":28049.5},""timestamp"":28049.5},{""type"":""chart_hover"",""data"":{""x"":1303,""y"":200,""timestamp"":28056.5},""timestamp"":28056.5},{""type"":""chart_hover"",""data"":{""x"":1304,""y"":202,""timestamp"":28063.399999976158},""timestamp"":28063.399999976158},{""type"":""chart_hover"",""data"":{""x"":1304,""y"":203,""timestamp"":28070.30000001192},""timestamp"":28070.30000001192},{""type"":""chart_hover"",""data"":{""x"":1305,""y"":204,""timestamp"":28077.30000001192},""timestamp"":28077.30000001192},{""type"":""chart_hover"",""data"":{""x"":1306,""y"":205,""timestamp"":28084.19999998808},""timestamp"":28084.19999998808},{""type"":""chart_hover"",""data"":{""x"":1307,""y"":207,""timestamp"":28091.19999998808},""timestamp"":28091.19999998808},{""type"":""chart_hover"",""data"":{""x"":1308,""y"":208,""timestamp"":28098.099999964237},""timestamp"":28098.099999964237},{""type"":""chart_hover"",""data"":{""x"":1308,""y"":209,""timestamp"":28105.099999964237},""timestamp"":28105.099999964237},{""type"":""chart_hover"",""data"":{""x"":1310,""y"":210,""timestamp"":28112},""timestamp"":28112},{""type"":""chart_hover"",""data"":{""x"":1310,""y"":212,""timestamp"":28119},""timestamp"":28119},{""type"":""chart_hover"",""data"":{""x"":1311,""y"":213,""timestamp"":28126.099999964237},""timestamp"":28126.099999964237},{""type"":""chart_hover"",""data"":{""x"":1313,""y"":214,""timestamp"":28133},""timestamp"":28133},{""type"":""chart_hover"",""data"":{""x"":1314,""y"":216,""timestamp"":28139.80000001192},""timestamp"":28139.80000001192},{""type"":""chart_hover"",""data"":{""x"":1316,""y"":218,""timestamp"":28146.80000001192},""timestamp"":28146.80000001192},{""type"":""chart_hover"",""data"":{""x"":1319,""y"":220,""timestamp"":28153.69999998808},""timestamp"":28153.69999998808},{""type"":""chart_hover"",""data"":{""x"":1321,""y"":222,""timestamp"":28160.80000001192},""timestamp"":28160.80000001192},{""type"":""chart_hover"",""data"":{""x"":1324,""y"":224,""timestamp"":28167.69999998808},""timestamp"":28167.69999998808},{""type"":""chart_hover"",""data"":{""x"":1326,""y"":226,""timestamp"":28174.599999964237},""timestamp"":28174.599999964237},{""type"":""chart_hover"",""data"":{""x"":1330,""y"":229,""timestamp"":28181.5},""timestamp"":28181.5},{""type"":""chart_hover"",""data"":{""x"":1334,""y"":232,""timestamp"":28188.399999976158},""timestamp"":28188.399999976158},{""type"":""chart_hover"",""data"":{""x"":1339,""y"":236,""timestamp"":28195.399999976158},""timestamp"":28195.399999976158},{""type"":""chart_hover"",""data"":{""x"":1344,""y"":240,""timestamp"":28202.30000001192},""timestamp"":28202.30000001192},{""type"":""chart_hover"",""data"":{""x"":1351,""y"":245,""timestamp"":28209.30000001192},""timestamp"":28209.30000001192},{""type"":""chart_hover"",""data"":{""x"":1357,""y"":249,""timestamp"":28216.19999998808},""timestamp"":28216.19999998808},{""type"":""chart_hover"",""data"":{""x"":1366,""y"":254,""timestamp"":28223.30000001192},""timestamp"":28223.30000001192},{""type"":""chart_hover"",""data"":{""x"":1375,""y"":258,""timestamp"":28230.19999998808},""timestamp"":28230.19999998808},{""type"":""chart_hover"",""data"":{""x"":1385,""y"":263,""timestamp"":28237.099999964237},""timestamp"":28237.099999964237},{""type"":""chart_hover"",""data"":{""x"":1394,""y"":266,""timestamp"":28244},""timestamp"":28244},{""type"":""chart_hover"",""data"":{""x"":1403,""y"":271,""timestamp"":28251},""timestamp"":28251},{""type"":""chart_hover"",""data"":{""x"":1413,""y"":274,""timestamp"":28258},""timestamp"":28258},{""type"":""chart_hover"",""data"":{""x"":1422,""y"":278,""timestamp"":28264.899999976158},""timestamp"":28264.899999976158},{""type"":""chart_hover"",""data"":{""x"":1429,""y"":280,""timestamp"":28271.899999976158},""timestamp"":28271.899999976158},{""type"":""chart_hover"",""data"":{""x"":1437,""y"":283,""timestamp"":28278.899999976158},""timestamp"":28278.899999976158},{""type"":""chart_hover"",""data"":{""x"":1444,""y"":285,""timestamp"":28285.80000001192},""timestamp"":28285.80000001192},{""type"":""chart_hover"",""data"":{""x"":1450,""y"":288,""timestamp"":28292.69999998808},""timestamp"":28292.69999998808},{""type"":""chart_hover"",""data"":{""x"":1455,""y"":290,""timestamp"":28299.69999998808},""timestamp"":28299.69999998808},{""type"":""chart_hover"",""data"":{""x"":1460,""y"":292,""timestamp"":28306.599999964237},""timestamp"":28306.599999964237},{""type"":""chart_hover"",""data"":{""x"":1464,""y"":294,""timestamp"":28313.5},""timestamp"":28313.5},{""type"":""chart_hover"",""data"":{""x"":1468,""y"":295,""timestamp"":28320.5},""timestamp"":28320.5},{""type"":""chart_hover"",""data"":{""x"":1472,""y"":297,""timestamp"":28327.399999976158},""timestamp"":28327.399999976158},{""type"":""chart_hover"",""data"":{""x"":1475,""y"":299,""timestamp"":28334.399999976158},""timestamp"":28334.399999976158},{""type"":""chart_hover"",""data"":{""x"":1479,""y"":300,""timestamp"":28341.30000001192},""timestamp"":28341.30000001192},{""type"":""chart_hover"",""data"":{""x"":1482,""y"":301,""timestamp"":28348.30000001192},""timestamp"":28348.30000001192},{""type"":""chart_hover"",""data"":