city_a_estimate,city_b_estimate,click_events,comprehension_ease,condition,condition_id,condition_name,confidence_label,confidence_rating,data_trust,display_format,end_time,hover_events,interaction_log,internal_node_id,participant_id,percent_score,phase,phase1_complete,phase2_complete,predictions_shown,probability_estimate,question_order,response,responses,round,rt,rt_total,skeptical_rating,start_time,stimulus,success,time_elapsed,time_on_viz,total_interactions,total_questions,total_score,travel_choice,trial_index,trial_type,trust_composite,usability_composite,usability_difficulty,view_history,visualization_literacy_score,visualization_shown
,,,,,,,,,,,,,,0.0-0.0,62e199458482518274623771,,,,,,,,0,,,3833,,,,"
	        <div class=""welcome-screen"">
	            <h1>Air Quality Prediction Study</h1>
	            <p>Welcome! You are about to participate in a research study about how people make decisions using air quality predictions. This study examines how different ways of presenting prediction information affect trust and decision-making. The study will take approximately 15 minutes.</p>
	            <div class=""study-info"">
	                <h3>What you'll do:</h3>
	                <ul>
	                    <li>Complete a brief assessment of visualization understanding</li>
	                    <li>Make predictions about air quality in two cities</li>
	                    <li>Answer questions about your confidence and trust</li>
						<li>Report basic demographic data</li>
	                </ul>
	            </div>
	        </div>
	    ",,3834,,,,,,0,html-button-response,,,,,,
,,,,,,,,,,,,,,0.0-1.0,62e199458482518274623771,,,,,,,,,,,2254,,,,,true,7091,,,,,,1,fullscreen,,,,,,
,,,,,,,,,,,,,,0.0-2.0,62e199458482518274623771,,,,,,,,"{""participant_id"":""62e199458482518274623771""}",,,4124,,,,,,11218,,,,,,2,survey-text,,,,,,
,,,,,,,,,,,,,,0.0-3.0,62e199458482518274623771,,,,,,,,0,,,10174,,,,"
	        <div class=""consent-form"">
	            <h2>Consent Form</h2>
	            <div class=""consent-header"">
	                <p><strong>Principal Investigator:</strong> Dr. Cindy Xiong Bearfield, Assistant Professor</p>
	                <p><strong>Study Title:</strong> Trusting What We See: Effect of Interactivity in Visual Data Analysis</p>
	                <p><strong>Supported By:</strong> Georgia Institute of Technology</p>
	            </div>
	            
	            <div class=""consent-details"">
	                <h3>WHAT IS THIS FORM?</h3>
	                <p>This form is called a Consent Form. It will give you information about the study so you can make an informed decision about participation in this research. We encourage you to take some time to think this over and ask questions now and at any other time. If you decide to participate, you will be asked to sign this form and you will be given a copy for your records.</p>

	                <h3>WHAT ARE SOME OF THE IMPORTANT ASPECTS OF THIS RESEARCH STUDY THAT I SHOULD BE AWARE OF?</h3>
	                <ul>
	                    <li>Whether or not you take part is up to you.</li>
	                    <li>You can choose not to take part.</li>
	                    <li>You can agree to take part and later change your mind.</li>
	                    <li>Your decision will not be held against you.</li>
	                </ul>

	                <h3>WHY ARE WE DOING THIS RESEARCH STUDY?</h3>
	                <p>The purpose of our study is to explore the visualization design space so we can understand how people perceive, interpret, and make decisions from visualizations. The results from this study can help us design visualizations and visualization guidelines to help people better communicate and understand data.</p>

	                <h3>WHO CAN PARTICIPATE IN THIS RESEARCH STUDY?</h3>
	                <p>Participants in this study must be at least 18 years of age or older and have general familiarity with using web-based systems. Participants currently outside of the U.S. cannot participate in this study (e.g. in the European Union or China).</p>

	                <h3>WHAT COMPENSATION I WILL RECEIVE?</h3>
	                <p>You will receive payment through Prolific worth $12/hour for participating in this study. We expect this study to take less than 20 minutes. Your participation is entirely voluntary. You are free to withdraw at any time, and if you do, you will receive partial payment for your time.</p>

	                <h3>HOW MANY PEOPLE WILL PARTICIPATE?</h3>
	                <p>We expect about 200 people will be in this research study.</p>

	                <h3>WHAT WILL I BE ASKED TO DO AND HOW MUCH TIME WILL IT TAKE?</h3>
	                <p>We will show you several data visualizations or components of a visualization and ask you to perform a visual task with the visualization on a computer screen, such as counting, searching, recognizing, memorizing, or describing the information presented to you. We may also ask you to fill out questionnaires concerning your thoughts regarding the visualization you saw. We expect that you will be in this research study to take between 15 and 60 minutes. We expect this study to be a one-off session and will not contact you regarding the study itself in the future.</p>

	                <h3>WILL BEING IN THIS RESEARCH STUDY HELP ME IN ANY WAY?</h3>
	                <p>You are not likely to have any direct benefit from being in this research study. The potential benefits to you from participation may include learning about how data visualization research is conducted, and you may learn about issues of current interest in data visualization and psychology.</p>

	                <h3>WHAT ARE MY RISKS OF BEING IN THIS RESEARCH STUDY?</h3>
	                <p>Your participation in this study does not involve any risks other than what you would encounter in daily life. In particular, you may experience fatigue or boredom, however, you may take breaks between tasks. The effects of participating should be comparable to those you would experience from viewing a computer monitor and using a keyboard. You may withdraw at any time.</p>

	                <h3>HOW WILL MY PERSONAL INFORMATION BE PROTECTED?</h3>
	                <p>We will comply with any applicable laws and regulations regarding confidentiality. To make sure that this research is being carried out in the proper way, the Georgia Institute of Technology IRB may review study records. The Office of Human Research Protections may also look at study records.</p>
	                <p>Efforts will be made to limit the use and disclosure of your personal information, including research study records, to people who need to review this information. We cannot promise complete secrecy. Organizations that may inspect and copy your information include the IRB and other representatives of this institution. Please be notified that our data privacy policy is based on U.S. regulations. Participants who are out of the U.S. might be excluded due to different data privacy requirements.</p>
	                <p><strong>Data Sharing:</strong> De-identified data from this study will be shared among the GATech research team, as well as the research community at large to advance science and health. We will remove or code any personal information that could identify you before files are shared with other researchers to ensure that, by current scientific standards and known methods, no one will be able to identify you from the information we share. Despite these measures, we cannot guarantee the anonymity of your personal data.</p>

	                <h3>WILL I BE GIVEN ANY MONEY OR OTHER COMPENSATION FOR BEING IN THIS RESEARCH STUDY?</h3>
	                <p>If you agree to take part in this research study, we will provide compensation. You will be paid in accordance with the stated policies of Amazon Mechanical Turk and/or Prolific.com. Payment will be made upon completion and acceptance of tasks that you have agreed to complete and you will be paid via Mechanical Turk or Prolific.com. If you choose to withdraw from the study, you will not be compensated for your participation.</p>

	                <h3>WHAT ELSE DO I NEED TO KNOW?</h3>
	                <p>We might be using attention check questions in our surveys. If you miss 2 or more attention check questions, your HIT will not be accepted and you will not be compensated.</p>

	                <h3>WHO CAN I TALK TO IF I HAVE QUESTIONS?</h3>
	                <p>If you have any questions about the content of this research project, you may contact Dr. Cindy Xiong Bearfield at cxiong@gatech.edu, or contact Songwen Hu at shu343@gatech.edu. If you have any questions about your rights as a research subject, you may also contact Georgia Institute of Technology Office of Research Integrity Assurance at IRB@gatech.edu.</p>

	                <h3>WHAT HAPPENS IF I SAY YES, BUT I CHANGE MY MIND LATER?</h3>
	                <p>You can decide not to participate in this research or you can start and then decide to leave the research at any time and it will not be held against you. To do so, simply exit the experiment. Any data already collected will not be saved.</p>

	                <p><strong>By clicking ""I agree"" below you are indicating that you are at least 18 years old, currently in the U.S., have read this consent form, and agree to participate in this research study. Please print a copy of this page for your records.</strong></p>
	            </div>
	        </div>
	    ",,21393,,,,,,3,html-button-response,,,,,,
,,,,,,,,,,,,,,0.0-4.0,62e199458482518274623771,,,,,,,,0,,,6759,,,,"
	        <div class=""vis-literacy-intro"">
	            <h2>Visualization Assessment</h2>
	            <p>Before we begin the main study, we'd like to assess your ability to read and interpret data visualizations.</p>
	            
	            <div class=""assessment-info"">
	                <h3>What you'll do:</h3>
	                <ul>
	                    <li>View 12 different data visualizations (charts and graphs)</li>
	                    <li>Answer questions about what each visualization shows</li>
	                    <li>Take your time to examine each chart carefully</li>
	                </ul>
	                
	                <p><strong>This assessment will take approximately 5-10 minutes.</strong></p>
	                <p>There are no right or wrong interpretations - we're interested in how you read visualizations.</p>
	            </div>
	        </div>
	    ",,28153,,,,,,4,html-button-response,,,,,,
,,,,,condition_9_combined,Combined PI + Ensemble,,,,,,,,0.0-5.0,62e199458482518274623771,25,,,,,,,,"[{""question_id"":""minivlat_1"",""question_type"":""line_chart"",""question_text"":""What was the price range of a barrel of oil in 2020?"",""response"":0,""correct_answer"":0,""is_correct"":true,""rt"":18847.399999976158},{""question_id"":""minivlat_2"",""question_type"":""bar_chart"",""question_text"":""What is the range of the average internet speed in Asia?"",""response"":0,""correct_answer"":3,""is_correct"":false,""rt"":113103.40000000596},{""question_id"":""minivlat_3"",""question_type"":""stacked_bar"",""question_text"":""What is the cost of peanuts in Las Vegas?"",""response"":0,""correct_answer"":1,""is_correct"":false,""rt"":64687.59999999404},{""question_id"":""minivlat_4"",""question_type"":""stacked_100_bar"",""question_text"":""What is the approval rating of Republicans among postgraduate-educated people?"",""response"":0,""correct_answer"":1,""is_correct"":false,""rt"":22703.899999976158},{""question_id"":""minivlat_5"",""question_type"":""pie_chart"",""question_text"":""About what is the global smartphone market share of Samsung?"",""response"":0,""correct_answer"":1,""is_correct"":false,""rt"":17184},{""question_id"":""minivlat_6"",""question_type"":""histogram"",""question_text"":""How many people have rated the taxi between 4.2 and 4.4?"",""response"":0,""correct_answer"":1,""is_correct"":false,""rt"":19784.100000023842},{""question_id"":""minivlat_7"",""question_type"":""scatter_plot"",""question_text"":""There is a negative linear relationship between the height and the weight of the 85 males."",""response"":1,""correct_answer"":1,""is_correct"":true,""rt"":13800},{""question_id"":""minivlat_8"",""question_type"":""area_chart"",""question_text"":""What was the average price of a pound of coffee beans in September 2013?"",""response"":3,""correct_answer"":0,""is_correct"":false,""rt"":20623.59999999404},{""question_id"":""minivlat_9"",""question_type"":""stacked_area"",""question_text"":""What was the number of girls named 'Olivia' in 2010 in the UK?"",""response"":1,""correct_answer"":2,""is_correct"":false,""rt"":30376},{""question_id"":""minivlat_10"",""question_type"":""bubble_chart"",""question_text"":""What is the total length of the metro system in Beijing?"",""response"":2,""correct_answer"":0,""is_correct"":false,""rt"":22000},{""question_id"":""minivlat_11"",""question_type"":""choropleth"",""question_text"":""In 2015, the unemployment rate for Washington (WA) was higher than that of Wisconsin (WI)."",""response"":0,""correct_answer"":0,""is_correct"":true,""rt"":14071.800000011921},{""question_id"":""minivlat_12"",""question_type"":""bubble_chart_multi"",""question_text"":""For which website was the number of unique visitors the largest in 2010?"",""response"":0,""correct_answer"":3,""is_correct"":false,""rt"":32944}]",,,390125.7999999821,,,,,418280,,,12,3,,5,vis-literacy,,,,,,
,,,,,,,,,,,,,,0.0-6.0,62e199458482518274623771,,,,,,,,,,,11543,,,,,,429824,,,,,,6,instructions,,,,"[{""page_index"":0,""viewing_time"":11543}]",,
82,96,,,,condition_0_historical,Historical Only,Somewhat Certain,5,,historical_only,,,"[{""type"":""chart_enter"",""data"":{""timestamp"":443.59999999403954},""timestamp"":443.7000000178814},{""type"":""chart_hover"",""data"":{""x"":976,""y"":284,""timestamp"":443.7000000178814},""timestamp"":443.7000000178814},{""type"":""chart_hover"",""data"":{""x"":969,""y"":284,""timestamp"":460.2000000178814},""timestamp"":460.2000000178814},{""type"":""chart_hover"",""data"":{""x"":959,""y"":282,""timestamp"":493.7000000178814},""timestamp"":493.7000000178814},{""type"":""chart_hover"",""data"":{""x"":957,""y"":281,""timestamp"":510.30000001192093},""timestamp"":510.30000001192093},{""type"":""chart_hover"",""data"":{""x"":955,""y"":281,""timestamp"":526.9000000059605},""timestamp"":526.9000000059605},{""type"":""chart_hover"",""data"":{""x"":946,""y"":274,""timestamp"":543.4000000059605},""timestamp"":543.4000000059605},{""type"":""chart_hover"",""data"":{""x"":939,""y"":274,""timestamp"":560.2000000178814},""timestamp"":560.2000000178814},{""type"":""chart_hover"",""data"":{""x"":920,""y"":274,""timestamp"":576.8000000119209},""timestamp"":576.8000000119209},{""type"":""chart_hover"",""data"":{""x"":907,""y"":271,""timestamp"":603.4000000059605},""timestamp"":603.4000000059605},{""type"":""chart_hover"",""data"":{""x"":903,""y"":271,""timestamp"":975.5},""timestamp"":975.5},{""type"":""chart_hover"",""data"":{""x"":899,""y"":274,""timestamp"":983.4000000059605},""timestamp"":983.4000000059605},{""type"":""chart_hover"",""data"":{""x"":896,""y"":277,""timestamp"":994},""timestamp"":994},{""type"":""chart_hover"",""data"":{""x"":883,""y"":281,""timestamp"":1010.7000000178814},""timestamp"":1010.7000000178814},{""type"":""chart_hover"",""data"":{""x"":868,""y"":284,""timestamp"":1027.4000000059605},""timestamp"":1027.4000000059605},{""type"":""chart_hover"",""data"":{""x"":853,""y"":285,""timestamp"":1044},""timestamp"":1044},{""type"":""chart_hover"",""data"":{""x"":827,""y"":290,""timestamp"":1060.7000000178814},""timestamp"":1060.7000000178814},{""type"":""chart_hover"",""data"":{""x"":791,""y"":296,""timestamp"":1077.4000000059605},""timestamp"":1077.4000000059605},{""type"":""chart_hover"",""data"":{""x"":745,""y"":302,""timestamp"":1094},""timestamp"":1094},{""type"":""chart_hover"",""data"":{""x"":702,""y"":307,""timestamp"":1110.7000000178814},""timestamp"":1110.7000000178814},{""type"":""chart_hover"",""data"":{""x"":642,""y"":312,""timestamp"":1127.300000011921},""timestamp"":1127.300000011921},{""type"":""chart_hover"",""data"":{""x"":609,""y"":316,""timestamp"":1144},""timestamp"":1144},{""type"":""chart_hover"",""data"":{""x"":583,""y"":316,""timestamp"":1160.7000000178814},""timestamp"":1160.7000000178814},{""type"":""chart_hover"",""data"":{""x"":559,""y"":316,""timestamp"":1177.4000000059605},""timestamp"":1177.4000000059605},{""type"":""chart_hover"",""data"":{""x"":539,""y"":316,""timestamp"":1194.0999999940395},""timestamp"":1194.0999999940395},{""type"":""chart_hover"",""data"":{""x"":523,""y"":316,""timestamp"":1210.9000000059605},""timestamp"":1210.9000000059605},{""type"":""chart_hover"",""data"":{""x"":508,""y"":316,""timestamp"":1228.0999999940395},""timestamp"":1228.0999999940395},{""type"":""chart_hover"",""data"":{""x"":498,""y"":316,""timestamp"":1244.0999999940395},""timestamp"":1244.0999999940395},{""type"":""chart_hover"",""data"":{""x"":489,""y"":317,""timestamp"":1260.9000000059605},""timestamp"":1260.9000000059605},{""type"":""chart_hover"",""data"":{""x"":483,""y"":317,""timestamp"":1278.2000000178814},""timestamp"":1278.2000000178814},{""type"":""chart_hover"",""data"":{""x"":480,""y"":317,""timestamp"":1294.0999999940395},""timestamp"":1294.0999999940395},{""type"":""chart_hover"",""data"":{""x"":479,""y"":317,""timestamp"":1310.800000011921},""timestamp"":1310.800000011921},{""type"":""chart_hover"",""data"":{""x"":477,""y"":317,""timestamp"":1391.5},""timestamp"":1391.5},{""type"":""chart_hover"",""data"":{""x"":476,""y"":317,""timestamp"":1399.2000000178814},""timestamp"":1399.2000000178814},{""type"":""chart_hover"",""data"":{""x"":475,""y"":317,""timestamp"":1471.4000000059605},""timestamp"":1471.4000000059605},{""type"":""chart_hover"",""data"":{""x"":473,""y"":317,""timestamp"":1478.9000000059605},""timestamp"":1478.9000000059605},{""type"":""chart_hover"",""data"":{""x"":470,""y"":317,""timestamp"":1494.300000011921},""timestamp"":1494.300000011921},{""type"":""chart_hover"",""data"":{""x"":462,""y"":317,""timestamp"":1511},""timestamp"":1511},{""type"":""chart_hover"",""data"":{""x"":448,""y"":318,""timestamp"":1527.7000000178814},""timestamp"":1527.7000000178814},{""type"":""chart_hover"",""data"":{""x"":436,""y"":320,""timestamp"":1544.4000000059605},""timestamp"":1544.5},{""type"":""chart_hover"",""data"":{""x"":419,""y"":321,""timestamp"":1561.0999999940395},""timestamp"":1561.0999999940395},{""type"":""chart_hover"",""data"":{""x"":401,""y"":322,""timestamp"":1577.800000011921},""timestamp"":1577.800000011921},{""type"":""chart_hover"",""data"":{""x"":389,""y"":322,""timestamp"":1594.5},""timestamp"":1594.5},{""type"":""chart_hover"",""data"":{""x"":381,""y"":322,""timestamp"":1611.0999999940395},""timestamp"":1611.0999999940395},{""type"":""chart_hover"",""data"":{""x"":376,""y"":322,""timestamp"":1627.800000011921},""timestamp"":1627.800000011921},{""type"":""chart_hover"",""data"":{""x"":371,""y"":322,""timestamp"":1644.5999999940395},""timestamp"":1644.5999999940395},{""type"":""chart_hover"",""data"":{""x"":366,""y"":322,""timestamp"":1661.2000000178814},""timestamp"":1661.2000000178814},{""type"":""chart_hover"",""data"":{""x"":356,""y"":322,""timestamp"":1678},""timestamp"":1678},{""type"":""chart_leave"",""data"":{""timestamp"":1694.9000000059605},""timestamp"":1694.9000000059605},{""type"":""chart_enter"",""data"":{""timestamp"":4983.200000017881},""timestamp"":4983.200000017881},{""type"":""chart_hover"",""data"":{""x"":354,""y"":324,""timestamp"":4983.200000017881},""timestamp"":4983.200000017881},{""type"":""chart_hover"",""data"":{""x"":359,""y"":325,""timestamp"":4998.4000000059605},""timestamp"":4998.4000000059605},{""type"":""chart_hover"",""data"":{""x"":376,""y"":331,""timestamp"":5014.9000000059605},""timestamp"":5014.9000000059605},{""type"":""chart_hover"",""data"":{""x"":387,""y"":334,""timestamp"":5031.5},""timestamp"":5031.5},{""type"":""chart_hover"",""data"":{""x"":391,""y"":336,""timestamp"":5048.200000017881},""timestamp"":5048.200000017881},{""type"":""chart_hover"",""data"":{""x"":392,""y"":338,""timestamp"":5065},""timestamp"":5065},{""type"":""chart_hover"",""data"":{""x"":395,""y"":340,""timestamp"":5131.5999999940395},""timestamp"":5131.5999999940395},{""type"":""chart_hover"",""data"":{""x"":399,""y"":345,""timestamp"":5148.300000011921},""timestamp"":5148.300000011921},{""type"":""chart_hover"",""data"":{""x"":403,""y"":351,""timestamp"":5165.0999999940395},""timestamp"":5165.0999999940395},{""type"":""chart_hover"",""data"":{""x"":408,""y"":358,""timestamp"":5181.800000011921},""timestamp"":5181.800000011921},{""type"":""chart_hover"",""data"":{""x"":419,""y"":369,""timestamp"":5198.4000000059605},""timestamp"":5198.4000000059605},{""type"":""chart_hover"",""data"":{""x"":438,""y"":384,""timestamp"":5215.0999999940395},""timestamp"":5215.0999999940395},{""type"":""chart_hover"",""data"":{""x"":471,""y"":408,""timestamp"":5231.800000011921},""timestamp"":5231.800000011921},{""type"":""chart_hover"",""data"":{""x"":524,""y"":440,""timestamp"":5248.4000000059605},""timestamp"":5248.4000000059605},{""type"":""chart_hover"",""data"":{""x"":624,""y"":486,""timestamp"":5265.200000017881},""timestamp"":5265.200000017881},{""type"":""chart_hover"",""data"":{""x"":744,""y"":525,""timestamp"":5281.800000011921},""timestamp"":5281.800000011921},{""type"":""chart_hover"",""data"":{""x"":860,""y"":562,""timestamp"":5298.300000011921},""timestamp"":5298.300000011921},{""type"":""chart_hover"",""data"":{""x"":947,""y"":586,""timestamp"":5314.9000000059605},""timestamp"":5314.9000000059605},{""type"":""chart_hover"",""data"":{""x"":987,""y"":598,""timestamp"":5331.5},""timestamp"":5331.5},{""type"":""chart_hover"",""data"":{""x"":1001,""y"":598,""timestamp"":5348.200000017881},""timestamp"":5348.200000017881},{""type"":""chart_hover"",""data"":{""x"":1011,""y"":598,""timestamp"":5365},""timestamp"":5365},{""type"":""chart_hover"",""data"":{""x"":1028,""y"":598,""timestamp"":5381.5999999940395},""timestamp"":5381.5999999940395},{""type"":""chart_leave"",""data"":{""timestamp"":5398.5},""timestamp"":5398.5},{""type"":""chart_enter"",""data"":{""timestamp"":10570.200000017881},""timestamp"":10570.200000017881},{""type"":""chart_hover"",""data"":{""x"":917,""y"":587,""timestamp"":10570.200000017881},""timestamp"":10570.200000017881},{""type"":""chart_hover"",""data"":{""x"":908,""y"":573,""timestamp"":10587.200000017881},""timestamp"":10587.200000017881},{""type"":""chart_hover"",""data"":{""x"":902,""y"":563,""timestamp"":10603.800000011921},""timestamp"":10603.800000011921},{""type"":""chart_hover"",""data"":{""x"":900,""y"":555,""timestamp"":10620.5},""timestamp"":10620.5},{""type"":""chart_hover"",""data"":{""x"":899,""y"":552,""timestamp"":10637.09999999404},""timestamp"":10637.09999999404},{""type"":""chart_hover"",""data"":{""x"":898,""y"":550,""timestamp"":10653.90000000596},""timestamp"":10653.90000000596},{""type"":""chart_hover"",""data"":{""x"":898,""y"":548,""timestamp"":10737.40000000596},""timestamp"":10737.40000000596},{""type"":""chart_hover"",""data"":{""x"":898,""y"":550,""timestamp"":10983.5},""timestamp"":10983.5},{""type"":""chart_hover"",""data"":{""x"":898,""y"":553,""timestamp"":10991.09999999404},""timestamp"":10991.09999999404},{""type"":""chart_hover"",""data"":{""x"":902,""y"":556,""timestamp"":11003.800000011921},""timestamp"":11003.800000011921},{""type"":""chart_hover"",""data"":{""x"":907,""y"":563,""timestamp"":11020.59999999404},""timestamp"":11020.59999999404},{""type"":""chart_hover"",""data"":{""x"":919,""y"":571,""timestamp"":11037.200000017881},""timestamp"":11037.300000011921},{""type"":""chart_hover"",""data"":{""x"":938,""y"":586,""timestamp"":11053.90000000596},""timestamp"":11053.90000000596},{""type"":""chart_hover"",""data"":{""x"":958,""y"":598,""timestamp"":11070.59999999404},""timestamp"":11070.59999999404},{""type"":""chart_leave"",""data"":{""timestamp"":11087.300000011921},""timestamp"":11087.300000011921},{""type"":""chart_enter"",""data"":{""timestamp"":12338.59999999404},""timestamp"":12338.59999999404},{""type"":""chart_hover"",""data"":{""x"":999,""y"":590,""timestamp"":12338.59999999404},""timestamp"":12338.59999999404},{""type"":""chart_hover"",""data"":{""x"":999,""y"":592,""timestamp"":12361.5},""timestamp"":12361.5},{""type"":""chart_hover"",""data"":{""x"":999,""y"":594,""timestamp"":12622.5},""timestamp"":12622.5},{""type"":""chart_hover"",""data"":{""x"":999,""y"":597,""timestamp"":12967.5},""timestamp"":12967.5},{""type"":""chart_leave"",""data"":{""timestamp"":12975.09999999404},""timestamp"":12975.09999999404},{""type"":""chart_enter"",""data"":{""timestamp"":29238.70000001788},""timestamp"":29238.70000001788},{""type"":""chart_hover"",""data"":{""x"":1117,""y"":588,""timestamp"":29238.70000001788},""timestamp"":29238.70000001788},{""type"":""chart_hover"",""data"":{""x"":1117,""y"":565,""timestamp"":29255.70000001788},""timestamp"":29255.70000001788},{""type"":""chart_hover"",""data"":{""x"":1114,""y"":548,""timestamp"":29272.40000000596},""timestamp"":29272.40000000596},{""type"":""chart_hover"",""data"":{""x"":1104,""y"":521,""timestamp"":29289.30000001192},""timestamp"":29289.30000001192},{""type"":""chart_hover"",""data"":{""x"":1086,""y"":485,""timestamp"":29305.90000000596},""timestamp"":29305.90000000596},{""type"":""chart_hover"",""data"":{""x"":1046,""y"":439,""timestamp"":29322.5},""timestamp"":29322.5},{""type"":""chart_hover"",""data"":{""x"":1011,""y"":405,""timestamp"":29339.20000001788},""timestamp"":29339.20000001788},{""type"":""chart_hover"",""data"":{""x"":985,""y"":385,""timestamp"":29355.80000001192},""timestamp"":29355.80000001192},{""type"":""chart_hover"",""data"":{""x"":969,""y"":374,""timestamp"":29372.5},""timestamp"":29372.5},{""type"":""chart_hover"",""data"":{""x"":960,""y"":367,""timestamp"":29389.20000001788},""timestamp"":29389.20000001788},{""type"":""chart_hover"",""data"":{""x"":953,""y"":358,""timestamp"":29406},""timestamp"":29406},{""type"":""chart_hover"",""data"":{""x"":944,""y"":348,""timestamp"":29422.59999999404},""timestamp"":29422.59999999404},{""type"":""chart_hover"",""data"":{""x"":931,""y"":333,""timestamp"":29439.30000001192},""timestamp"":29439.30000001192},{""type"":""chart_hover"",""data"":{""x"":925,""y"":328,""timestamp"":29456},""timestamp"":29456},{""type"":""chart_hover"",""data"":{""x"":924,""y"":328,""timestamp"":29472.59999999404},""timestamp"":29472.59999999404},{""type"":""chart_hover"",""data"":{""x"":921,""y"":328,""timestamp"":29489.30000001192},""timestamp"":29489.30000001192},{""type"":""chart_hover"",""data"":{""x"":916,""y"":327,""timestamp"":29506.09999999404},""timestamp"":29506.09999999404},{""type"":""chart_hover"",""data"":{""x"":901,""y"":323,""timestamp"":29522.59999999404},""timestamp"":29522.59999999404},{""type"":""chart_hover"",""data"":{""x"":878,""y"":317,""timestamp"":29539.5},""timestamp"":29539.5},{""type"":""chart_hover"",""data"":{""x"":852,""y"":309,""timestamp"":29555.90000000596},""timestamp"":29555.90000000596},{""type"":""chart_hover"",""data"":{""x"":832,""y"":300,""timestamp"":29572.40000000596},""timestamp"":29572.40000000596},{""type"":""chart_hover"",""data"":{""x"":817,""y"":292,""timestamp"":29589.09999999404},""timestamp"":29589.09999999404},{""type"":""chart_hover"",""data"":{""x"":814,""y"":290,""timestamp"":29605.80000001192},""timestamp"":29605.80000001192},{""type"":""chart_hover"",""data"":{""x"":812,""y"":289,""timestamp"":29622.40000000596},""timestamp"":29622.40000000596},{""type"":""chart_hover"",""data"":{""x"":810,""y"":289,""timestamp"":29672.59999999404},""timestamp"":29672.59999999404},{""type"":""chart_hover"",""data"":{""x"":806,""y"":289,""timestamp"":29689.09999999404},""timestamp"":29689.09999999404},{""type"":""chart_hover"",""data"":{""x"":808,""y"":289,""timestamp"":29807.20000001788},""timestamp"":29807.20000001788},{""type"":""chart_hover"",""data"":{""x"":810,""y"":288,""timestamp"":29822.59999999404},""timestamp"":29822.59999999404},{""type"":""chart_hover"",""data"":{""x"":829,""y"":288,""timestamp"":29839.30000001192},""timestamp"":29839.30000001192},{""type"":""chart_hover"",""data"":{""x"":842,""y"":288,""timestamp"":29856},""timestamp"":29856},{""type"":""chart_hover"",""data"":{""x"":856,""y"":289,""timestamp"":29872.90000000596},""timestamp"":29872.90000000596},{""type"":""chart_hover"",""data"":{""x"":868,""y"":289,""timestamp"":29890.30000001192},""timestamp"":29890.30000001192},{""type"":""chart_hover"",""data"":{""x"":880,""y"":289,""timestamp"":29906.20000001788},""timestamp"":29906.20000001788},{""type"":""chart_hover"",""data"":{""x"":894,""y"":290,""timestamp"":29922.80000001192},""timestamp"":29922.80000001192},{""type"":""chart_hover"",""data"":{""x"":908,""y"":291,""timestamp"":29939.40000000596},""timestamp"":29939.40000000596},{""type"":""chart_hover"",""data"":{""x"":918,""y"":293,""timestamp"":29956.09999999404},""timestamp"":29956.09999999404},{""type"":""chart_hover"",""data"":{""x"":928,""y"":295,""timestamp"":29972.80000001192},""timestamp"":29972.80000001192},{""type"":""chart_hover"",""data"":{""x"":932,""y"":296,""timestamp"":29989.5},""timestamp"":29989.5},{""type"":""chart_hover"",""data"":{""x"":937,""y"":296,""timestamp"":30006.09999999404},""timestamp"":30006.09999999404},{""type"":""chart_hover"",""data"":{""x"":944,""y"":296,""timestamp"":30022.80000001192},""timestamp"":30022.80000001192},{""type"":""chart_hover"",""data"":{""x"":960,""y"":296,""timestamp"":30039.5},""timestamp"":30039.5},{""type"":""chart_hover"",""data"":{""x"":968,""y"":296,""timestamp"":30056.20000001788},""timestamp"":30056.20000001788},{""type"":""chart_hover"",""data"":{""x"":970,""y"":297,""timestamp"":30072.90000000596},""timestamp"":30072.90000000596},{""type"":""chart_hover"",""data"":{""x"":971,""y"":297,""timestamp"":30089.59999999404},""timestamp"":30089.59999999404},{""type"":""chart_hover"",""data"":{""x"":972,""y"":297,""timestamp"":30151.20000001788},""timestamp"":30151.20000001788},{""type"":""chart_hover"",""data"":{""x"":974,""y"":297,""timestamp"":30159.09999999404},""timestamp"":30159.09999999404},{""type"":""chart_hover"",""data"":{""x"":975,""y"":297,""timestamp"":30174.20000001788},""timestamp"":30174.20000001788},{""type"":""chart_hover"",""data"":{""x"":977,""y"":297,""timestamp"":30190.90000000596},""timestamp"":30190.90000000596},{""type"":""chart_hover"",""data"":{""x"":978,""y"":297,""timestamp"":30239.59999999404},""timestamp"":30239.59999999404},{""type"":""chart_hover"",""data"":{""x"":979,""y"":297,""timestamp"":30256.5},""timestamp"":30256.5},{""type"":""chart_hover"",""data"":{""x"":980,""y"":297,""timestamp"":30274.40000000596},""timestamp"":30274.40000000596},{""type"":""chart_hover"",""data"":{""x"":984,""y"":294,""timestamp"":30290.30000001192},""timestamp"":30290.30000001192},{""type"":""chart_hover"",""data"":{""x"":986,""y"":292,""timestamp"":30306.5},""timestamp"":30306.5},{""type"":""chart_hover"",""data"":{""x"":989,""y"":290,""timestamp"":30323.09999999404},""timestamp"":30323.09999999404},{""type"":""chart_hover"",""data"":{""x"":991,""y"":289,""timestamp"":30339.80000001192},""timestamp"":30339.80000001192},{""type"":""chart_hover"",""data"":{""x"":994,""y"":288,""timestamp"":30439.5},""timestamp"":30439.5},{""type"":""chart_hover"",""data"":{""x"":999,""y"":286,""timestamp"":30457.20000001788},""timestamp"":30457.20000001788},{""type"":""chart_hover"",""data"":{""x"":1003,""y"":285,""timestamp"":30474.09999999404},""timestamp"":30474.09999999404},{""type"":""chart_hover"",""data"":{""x"":1004,""y"":285,""timestamp"":30490.09999999404},""timestamp"":30490.09999999404},{""type"":""chart_hover"",""data"":{""x"":1005,""y"":285,""timestamp"":30508.20000001788},""timestamp"":30508.20000001788},{""type"":""chart_hover"",""data"":{""x"":1006,""y"":285,""timestamp"":30523.30000001192},""timestamp"":30523.30000001192},{""type"":""chart_hover"",""data"":{""x"":1010,""y"":288,""timestamp"":30540},""timestamp"":30540},{""type"":""chart_hover"",""data"":{""x"":1013,""y"":293,""timestamp"":30556.70000001788},""timestamp"":30556.70000001788},{""type"":""chart_hover"",""data"":{""x"":1015,""y"":295,""timestamp"":30573.40000000596},""timestamp"":30573.40000000596},{""type"":""chart_hover"",""data"":{""x"":1016,""y"":295,""timestamp"":30590.09999999404},""timestamp"":30590.09999999404},{""type"":""chart_hover"",""data"":{""x"":1018,""y"":295,""timestamp"":30607},""timestamp"":30607},{""type"":""chart_hover"",""data"":{""x"":1019,""y"":295,""timestamp"":30703.09999999404},""timestamp"":30703.09999999404},{""type"":""chart_hover"",""data"":{""x"":1023,""y"":295,""timestamp"":30711},""timestamp"":30711},{""type"":""chart_hover"",""data"":{""x"":1026,""y"":295,""timestamp"":30723.5},""timestamp"":30723.5},{""type"":""chart_hover"",""data"":{""x"":1030,""y"":296,""timestamp"":30740.20000001788},""timestamp"":30740.20000001788},{""type"":""chart_hover"",""data"":{""x"":1040,""y"":297,""timestamp"":30757},""timestamp"":30757},{""type"":""chart_hover"",""data"":{""x"":1057,""y"":297,""timestamp"":30773.59999999404},""timestamp"":30773.59999999404},{""type"":""chart_hover"",""data"":{""x"":1071,""y"":297,""timestamp"":30790.30000001192},""timestamp"":30790.30000001192},{""type"":""chart_hover"",""data"":{""x"":1083,""y"":297,""timestamp"":30806.90000000596},""timestamp"":30806.90000000596},{""type"":""chart_hover"",""data"":{""x"":1107,""y"":297,""timestamp"":30823.59999999404},""timestamp"":30823.59999999404},{""type"":""chart_hover"",""data"":{""x"":1120,""y"":297,""timestamp"":30840.30000001192},""timestamp"":30840.30000001192},{""type"":""chart_hover"",""data"":{""x"":1127,""y"":297,""timestamp"":30857},""timestamp"":30857},{""type"":""chart_hover"",""data"":{""x"":1130,""y"":297,""timestamp"":30873.90000000596},""timestamp"":30873.90000000596},{""type"":""chart_hover"",""data"":{""x"":1131,""y"":297,""timestamp"":30891.90000000596},""timestamp"":30891.90000000596},{""type"":""chart_hover"",""data"":{""x"":1132,""y"":297,""timestamp"":31023.5},""timestamp"":31023.5},{""type"":""chart_hover"",""data"":{""x"":1140,""y"":299,""timestamp"":31041.20000001788},""timestamp"":31041.20000001788},{""type"":""chart_hover"",""data"":{""x"":1150,""y"":301,""timestamp"":31058.20000001788},""timestamp"":31058.20000001788},{""type"":""chart_hover"",""data"":{""x"":1157,""y"":301,""timestamp"":31073.90000000596},""timestamp"":31073.90000000596},{""type"":""chart_hover"",""data"":{""x"":1161,""y"":303,""timestamp"":31090.59999999404},""timestamp"":31090.59999999404},{""type"":""chart_hover"",""data"":{""x"":1162,""y"":303,""timestamp"":31107.30000001192},""timestamp"":31107.30000001192},{""type"":""chart_hover"",""data"":{""x"":1163,""y"":303,""timestamp"":31159.30000001192},""timestamp"":31159.30000001192},{""type"":""chart_hover"",""data"":{""x"":1164,""y"":304,""timestamp"":31174.20000001788},""timestamp"":31174.20000001788},{""type"":""chart_hover"",""data"":{""x"":1167,""y"":304,""timestamp"":31191.20000001788},""timestamp"":31191.20000001788},{""type"":""chart_hover"",""data"":{""x"":1168,""y"":304,""timestamp"":31263.20000001788},""timestamp"":31263.20000001788},{""type"":""chart_hover"",""data"":{""x"":1170,""y"":304,""timestamp"":31274.09999999404},""timestamp"":31274.09999999404},{""type"":""chart_hover"",""data"":{""x"":1177,""y"":304,""timestamp"":31290.80000001192},""timestamp"":31290.80000001192},{""type"":""chart_hover"",""data"":{""x"":1185,""y"":304,""timestamp"":31307.40000000596},""timestamp"":31307.40000000596},{""type"":""chart_hover"",""data"":{""x"":1188,""y"":305,""timestamp"":31324.09999999404},""timestamp"":31324.09999999404},{""type"":""chart_hover"",""data"":{""x"":1189,""y"":305,""timestamp"":31340.80000001192},""timestamp"":31340.80000001192},{""type"":""chart_hover"",""data"":{""x"":1191,""y"":306,""timestamp"":31359},""timestamp"":31359},{""type"":""chart_hover"",""data"":{""x"":1191,""y"":307,""timestamp"":31374.20000001788},""timestamp"":31374.20000001788},{""type"":""chart_hover"",""data"":{""x"":1194,""y"":309,""timestamp"":31390.80000001192},""timestamp"":31390.80000001192},{""type"":""chart_hover"",""data"":{""x"":1198,""y"":312,""timestamp"":31407.5},""timestamp"":31407.5},{""type"":""chart_hover"",""data"":{""x"":1200,""y"":313,""timestamp"":31424.30000001192},""timestamp"":31424.30000001192},{""type"":""chart_hover"",""data"":{""x"":1201,""y"":314,""timestamp"":31479.20000001788},""timestamp"":31479.20000001788},{""type"":""chart_hover"",""data"":{""x"":1203,""y"":313,""timestamp"":31491},""timestamp"":31491},{""type"":""chart_hover"",""data"":{""x"":1206,""y"":313,""timestamp"":31507.70000001788},""timestamp"":31507.70000001788},{""type"":""chart_hover"",""data"":{""x"":1207,""y"":312,""timestamp"":31524.40000000596},""timestamp"":31524.40000000596},{""type"":""chart_hover"",""data"":{""x"":1209,""y"":312,""timestamp"":31775.59999999404},""timestamp"":31775.59999999404},{""type"":""chart_hover"",""data"":{""x"":1217,""y"":310,""timestamp"":31791.20000001788},""timestamp"":31791.20000001788},{""type"":""chart_hover"",""data"":{""x"":1222,""y"":310,""timestamp"":31808},""timestamp"":31808},{""type"":""chart_hover"",""data"":{""x"":1224,""y"":309,""timestamp"":31824.59999999404},""timestamp"":31824.59999999404},{""type"":""chart_hover"",""data"":{""x"":1227,""y"":309,""timestamp"":31841.30000001192},""timestamp"":31841.30000001192},{""type"":""chart_hover"",""data"":{""x"":1228,""y"":309,""timestamp"":31858},""timestamp"":31858},{""type"":""chart_hover"",""data"":{""x"":1230,""y"":309,""timestamp"":31874.70000001788},""timestamp"":31874.70000001788},{""type"":""chart_hover"",""data"":{""x"":1231,""y"":309,""timestamp"":31895.09999999404},""timestamp"":31895.09999999404},{""type"":""chart_hover"",""data"":{""x"":1233,""y"":309,""timestamp"":31911.20000001788},""timestamp"":31911.20000001788},{""type"":""chart_hover"",""data"":{""x"":1234,""y"":309,""timestamp"":31927.09999999404},""timestamp"":31927.09999999404},{""type"":""chart_hover"",""data"":{""x"":1236,""y"":309,""timestamp"":32191.30000001192},""timestamp"":32191.30000001192},{""type"":""chart_hover"",""data"":{""x"":1237,""y"":309,""timestamp"":32208.70000001788},""timestamp"":32208.70000001788},{""type"":""chart_hover"",""data"":{""x"":1239,""y"":309,""timestamp"":32225.59999999404},""timestamp"":32225.59999999404},{""type"":""chart_hover"",""data"":{""x"":1243,""y"":309,""timestamp"":32519.30000001192},""timestamp"":32519.30000001192},{""type"":""chart_hover"",""data"":{""x"":1245,""y"":309,""timestamp"":32527.09999999404},""timestamp"":32527.09999999404},{""type"":""chart_hover"",""data"":{""x"":1247,""y"":309,""timestamp"":32542},""timestamp"":32542},{""type"":""chart_hover"",""data"":{""x"":1248,""y"":309,""timestamp"":32558.70000001788},""timestamp"":32558.70000001788},{""type"":""chart_hover"",""data"":{""x"":1251,""y"":309,""timestamp"":32575.40000000596},""timestamp"":32575.40000000596},{""type"":""chart_hover"",""data"":{""x"":1252,""y"":308,""timestamp"":32592.09999999404},""timestamp"":32592.09999999404},{""type"":""chart_hover"",""data"":{""x"":1252,""y"":307,""timestamp"":32608.80000001192},""timestamp"":32608.80000001192},{""type"":""chart_hover"",""data"":{""x"":1252,""y"":302,""timestamp"":32625.5},""timestamp"":32625.5},{""type"":""chart_hover"",""data"":{""x"":1252,""y"":297,""timestamp"":32642.20000001788},""timestamp"":32642.20000001788},{""type"":""chart_hover"",""data"":{""x"":1251,""y"":295,""timestamp"":32658.80000001192},""timestamp"":32658.80000001192},{""type"":""chart_hover"",""data"":{""x"":1249,""y"":293,""timestamp"":33191.40000000596},""timestamp"":33191.40000000596},{""type"":""chart_hover"",""data"":{""x"":1248,""y"":292,""timestamp"":33199},""timestamp"":33199},{""type"":""chart_hover"",""data"":{""x"":1246,""y"":290,""timestamp"":33209.40000000596},""timestamp"":33209.40000000596},{""type"":""chart_hover"",""data"":{""x"":1244,""y"":288,""timestamp"":33226.20000001788},""timestamp"":33226.20000001788},{""type"":""chart_hover"",""data"":{""x"":1243,""y"":287,""timestamp"":33242.70000001788},""timestamp"":33242.70000001788},{""type"":""chart_hover"",""data"":{""x"":1243,""y"":288,""timestamp"":33407.09999999404},""timestamp"":33407.09999999404},{""type"":""chart_hover"",""data"":{""x"":1243,""y"":289,""timestamp"":33423.09999999404},""timestamp"":33423.09999999404},{""type"":""chart_hover"",""data"":{""x"":1243,""y"":291,""timestamp"":33431.20000001788},""timestamp"":33431.20000001788},{""type"":""chart_hover"",""data"":{""x"":1243,""y"":292,""timestamp"":33527.30000001192},""timestamp"":33527.30000001192},{""type"":""chart_hover"",""data"":{""x"":1245,""y"":293,""timestamp"":33543},""timestamp"":33543},{""type"":""chart_hover"",""data"":{""x"":1247,""y"":293,""timestamp"":33559.70000001788},""timestamp"":33559.70000001788},{""type"":""chart_hover"",""data"":{""x"":1247,""y"":295,""timestamp"":33927.59999999404},""timestamp"":33927.59999999404},{""type"":""chart_hover"",""data"":{""x"":1245,""y"":296,""timestamp"":33943.5},""timestamp"":33943.5},{""type"":""chart_hover"",""data"":{""x"":1244,""y"":297,""timestamp"":33960.09999999404},""timestamp"":33960.09999999404},{""type"":""chart_hover"",""data"":{""x"":1243,""y"":297,""timestamp"":33983},""timestamp"":33983},{""type"":""chart_hover"",""data"":{""x"":1242,""y"":297,""timestamp"":33999},""timestamp"":33999},{""type"":""chart_hover"",""data"":{""x"":1241,""y"":297,""timestamp"":34043.80000001192},""timestamp"":34043.80000001192},{""type"":""chart_hover"",""data"":{""x"":1240,""y"":297,""timestamp"":34255.20000001788},""timestamp"":34255.20000001788},{""type"":""chart_hover"",""data"":{""x"":1240,""y"":298,""timestamp"":34263},""timestamp"":34263},{""type"":""chart_hover"",""data"":{""x"":1237,""y"":299,""timestamp"":34277.09999999404},""timestamp"":34277.09999999404},{""type"":""chart_hover"",""data"":{""x"":1223,""y"":304,""timestamp"":34293.80000001192},""timestamp"":34293.80000001192},{""type"":""chart_hover"",""data"":{""x"":1187,""y"":320,""timestamp"":34310.40000000596},""timestamp"":34310.40000000596},{""type"":""chart_hover"",""data"":{""x"":1112,""y"":353,""timestamp"":34327.09999999404},""timestamp"":34327.09999999404},{""type"":""chart_hover"",""data"":{""x"":911,""y"":436,""timestamp"":34343.80000001192},""timestamp"":34343.80000001192},{""type"":""chart_hover"",""data"":{""x"":798,""y"":486,""timestamp"":34360.59999999404},""timestamp"":34360.59999999404},{""type"":""chart_hover"",""data"":{""x"":704,""y"":525,""timestamp"":34377.40000000596},""timestamp"":34377.40000000596},{""type"":""chart_hover"",""data"":{""x"":618,""y"":563,""timestamp"":34394.40000000596},""timestamp"":34394.40000000596},{""type"":""chart_hover"",""data"":{""x"":587,""y"":579,""timestamp"":34410.70000001788},""timestamp"":34410.70000001788},{""type"":""chart_hover"",""data"":{""x"":563,""y"":592,""timestamp"":34427.20000001788},""timestamp"":34427.20000001788},{""type"":""chart_leave"",""data"":{""timestamp"":34444},""timestamp"":34444},{""type"":""chart_enter"",""data"":{""timestamp"":38631.40000000596},""timestamp"":38631.40000000596},{""type"":""chart_hover"",""data"":{""x"":847,""y"":549,""timestamp"":38631.40000000596},""timestamp"":38631.40000000596},{""type"":""chart_hover"",""data"":{""x"":847,""y"":483,""timestamp"":38648.5},""timestamp"":38648.5},{""type"":""chart_hover"",""data"":{""x"":847,""y"":440,""timestamp"":38665.20000001788},""timestamp"":38665.20000001788},{""type"":""chart_hover"",""data"":{""x"":847,""y"":413,""timestamp"":38681.80000001192},""timestamp"":38681.90000000596},{""type"":""chart_hover"",""data"":{""x"":847,""y"":398,""timestamp"":38698.5},""timestamp"":38698.5},{""type"":""chart_hover"",""data"":{""x"":847,""y"":390,""timestamp"":38715.09999999404},""timestamp"":38715.09999999404},{""type"":""chart_hover"",""data"":{""x"":847,""y"":385,""timestamp"":38732},""timestamp"":38732},{""type"":""chart_hover"",""data"":{""x"":847,""y"":380,""timestamp"":38748.40000000596},""timestamp"":38748.40000000596},{""type"":""chart_hover"",""data"":{""x"":847,""y"":376,""timestamp"":38765.20000001788},""timestamp"":38765.20000001788},{""type"":""chart_hover"",""data"":{""x"":847,""y"":370,""timestamp"":38782},""timestamp"":38782},{""type"":""chart_hover"",""data"":{""x"":848,""y"":361,""timestamp"":38798.59999999404},""timestamp"":38798.59999999404},{""type"":""chart_hover"",""data"":{""x"":851,""y"":355,""timestamp"":38815.20000001788},""timestamp"":38815.20000001788},{""type"":""chart_hover"",""data"":{""x"":852,""y"":355,""timestamp"":38831.90000000596},""timestamp"":38831.90000000596},{""type"":""chart_hover"",""data"":{""x"":856,""y"":355,""timestamp"":38848.59999999404},""timestamp"":38848.59999999404},{""type"":""chart_hover"",""data"":{""x"":863,""y"":355,""timestamp"":38865.40000000596},""timestamp"":38865.40000000596},{""type"":""chart_hover"",""data"":{""x"":873,""y"":353,""timestamp"":38882.09999999404},""timestamp"":38882.09999999404},{""type"":""chart_hover"",""data"":{""x"":887,""y"":348,""timestamp"":38898.70000001788},""timestamp"":38898.70000001788},{""type"":""chart_hover"",""data"":{""x"":901,""y"":342,""timestamp"":38915.40000000596},""timestamp"":38915.40000000596},{""type"":""chart_hover"",""data"":{""x"":919,""y"":334,""timestamp"":38932.09999999404},""timestamp"":38932.09999999404},{""type"":""chart_hover"",""data"":{""x"":940,""y"":329,""timestamp"":38948.59999999404},""timestamp"":38948.59999999404},{""type"":""chart_hover"",""data"":{""x"":951,""y"":322,""timestamp"":38965.20000001788},""timestamp"":38965.20000001788},{""type"":""chart_hover"",""data"":{""x"":956,""y"":319,""timestamp"":38981.90000000596},""timestamp"":38981.90000000596},{""type"":""chart_hover"",""data"":{""x"":959,""y"":317,""timestamp"":38998.5},""timestamp"":38998.5},{""type"":""chart_hover"",""data"":{""x"":961,""y"":315,""timestamp"":39015.09999999404},""timestamp"":39015.09999999404},{""type"":""chart_hover"",""data"":{""x"":962,""y"":315,""timestamp"":39047},""timestamp"":39047},{""type"":""chart_hover"",""data"":{""x"":964,""y"":315,""timestamp"":39055.09999999404},""timestamp"":39055.09999999404},{""type"":""chart_hover"",""data"":{""x"":967,""y"":315,""timestamp"":39065.30000001192},""timestamp"":39065.30000001192},{""type"":""chart_hover"",""data"":{""x"":969,""y"":313,""timestamp"":39081.90000000596},""timestamp"":39081.90000000596},{""type"":""chart_hover"",""data"":{""x"":972,""y"":311,""timestamp"":39098.70000001788},""timestamp"":39098.70000001788},{""type"":""chart_hover"",""data"":{""x"":975,""y"":309,""timestamp"":39115.30000001192},""timestamp"":39115.30000001192},{""type"":""chart_hover"",""data"":{""x"":976,""y"":307,""timestamp"":39132},""timestamp"":39132},{""type"":""chart_hover"",""data"":{""x"":976,""y"":305,""timestamp"":39148.70000001788},""timestamp"":39148.70000001788},{""type"":""chart_hover"",""data"":{""x"":976,""y"":302,""timestamp"":39165.5},""timestamp"":39165.5},{""type"":""chart_hover"",""data"":{""x"":976,""y"":301,""timestamp"":39182.59999999404},""timestamp"":39182.59999999404},{""type"":""chart_hover"",""data"":{""x"":979,""y"":296,""timestamp"":39198.70000001788},""timestamp"":39198.70000001788},{""type"":""chart_hover"",""data"":{""x"":981,""y"":290,""timestamp"":39215.30000001192},""timestamp"":39215.30000001192},{""type"":""chart_hover"",""data"":{""x"":982,""y"":288,""timestamp"":39232},""timestamp"":39232},{""type"":""chart_hover"",""data"":{""x"":982,""y"":287,""timestamp"":39248.70000001788},""timestamp"":39248.70000001788},{""type"":""chart_hover"",""data"":{""x"":983,""y"":285,""timestamp"":39265.5},""timestamp"":39265.5},{""type"":""chart_hover"",""data"":{""x"":984,""y"":281,""timestamp"":39282.09999999404},""timestamp"":39282.09999999404},{""type"":""chart_hover"",""data"":{""x"":985,""y"":278,""timestamp"":39298.70000001788},""timestamp"":39298.70000001788},{""type"":""chart_hover"",""data"":{""x"":987,""y"":275,""timestamp"":39315.40000000596},""timestamp"":39315.40000000596},{""type"":""chart_hover"",""data"":{""x"":988,""y"":273,""timestamp"":39332.30000001192},""timestamp"":39332.30000001192},{""type"":""chart_hover"",""data"":{""x"":989,""y"":272,""timestamp"":39349.09999999404},""timestamp"":39349.09999999404},{""type"":""chart_hover"",""data"":{""x"":991,""y"":271,""timestamp"":39366.30000001192},""timestamp"":39366.30000001192},{""type"":""chart_hover"",""data"":{""x"":994,""y"":271,""timestamp"":39382.20000001788},""timestamp"":39382.20000001788},{""type"":""chart_hover"",""data"":{""x"":999,""y"":271,""timestamp"":39398.80000001192},""timestamp"":39398.80000001192},{""type"":""chart_hover"",""data"":{""x"":1003,""y"":271,""timestamp"":39415.5},""timestamp"":39415.5},{""type"":""chart_hover"",""data"":{""x"":1005,""y"":272,""timestamp"":39432.30000001192},""timestamp"":39432.30000001192},{""type"":""chart_hover"",""data"":{""x"":1008,""y"":275,""timestamp"":39448.90000000596},""timestamp"":39448.90000000596},{""type"":""chart_hover"",""data"":{""x"":1011,""y"":278,""timestamp"":39465.90000000596},""timestamp"":39465.90000000596},{""type"":""chart_hover"",""data"":{""x"":1014,""y"":282,""timestamp"":39482.30000001192},""timestamp"":39482.30000001192},{""type"":""chart_hover"",""data"":{""x"":1019,""y"":287,""timestamp"":39498.90000000596},""timestamp"":39498.90000000596},{""type"":""chart_hover"",""data"":{""x"":1022,""y"":290,""timestamp"":39515.70000001788},""timestamp"":39515.70000001788},{""type"":""chart_hover"",""data"":{""x"":1022,""y"":291,""timestamp"":39687.40000000596},""timestamp"":39687.40000000596},{""type"":""chart_hover"",""data"":{""x"":1021,""y"":291,""timestamp"":39699.40000000596},""timestamp"":39699.40000000596},{""type"":""chart_hover"",""data"":{""x"":1017,""y"":291,""timestamp"":39717.20000001788},""timestamp"":39717.20000001788},{""type"":""chart_hover"",""data"":{""x"":1015,""y"":291,""timestamp"":39732.59999999404},""timestamp"":39732.59999999404},{""type"":""chart_hover"",""data"":{""x"":1014,""y"":291,""timestamp"":39749.20000001788},""timestamp"":39749.20000001788},{""type"":""chart_hover"",""data"":{""x"":1013,""y"":291,""timestamp"":39775},""timestamp"":39775},{""type"":""chart_hover"",""data"":{""x"":1013,""y"":290,""timestamp"":39791.40000000596},""timestamp"":39791.40000000596},{""type"":""chart_hover"",""data"":{""x"":1013,""y"":289,""timestamp"":39832.70000001788},""timestamp"":39832.70000001788},{""type"":""chart_hover"",""data"":{""x"":1013,""y"":287,""timestamp"":39849.30000001192},""timestamp"":39849.30000001192},{""type"":""chart_hover"",""data"":{""x"":1014,""y"":287,""timestamp"":39871.09999999404},""timestamp"":39871.09999999404},{""type"":""chart_hover"",""data"":{""x"":1014,""y"":286,""timestamp"":39882.70000001788},""timestamp"":39882.70000001788},{""type"":""chart_hover"",""data"":{""x"":1015,""y"":286,""timestamp"":39899.40000000596},""timestamp"":39899.40000000596},{""type"":""chart_hover"",""data"":{""x"":1016,""y"":286,""timestamp"":39916},""timestamp"":39916},{""type"":""chart_hover"",""data"":{""x"":1017,""y"":286,""timestamp"":39932.70000001788},""timestamp"":39932.70000001788},{""type"":""chart_hover"",""data"":{""x"":1019,""y"":286,""timestamp"":39949.40000000596},""timestamp"":39949.40000000596},{""type"":""chart_hover"",""data"":{""x"":1020,""y"":286,""timestamp"":39999.5},""timestamp"":39999.5},{""type"":""chart_hover"",""data"":{""x"":1021,""y"":287,""timestamp"":40231.30000001192},""timestamp"":40231.30000001192},{""type"":""chart_hover"",""data"":{""x"":1020,""y"":290,""timestamp"":40247.09999999404},""timestamp"":40247.09999999404},{""type"":""chart_hover"",""data"":{""x"":1012,""y"":294,""timestamp"":40255},""timestamp"":40255},{""type"":""chart_hover"",""data"":{""x"":1010,""y"":296,""timestamp"":40266.5},""timestamp"":40266.5},{""type"":""chart_hover"",""data"":{""x"":1004,""y"":300,""timestamp"":40283.90000000596},""timestamp"":40283.90000000596},{""type"":""chart_hover"",""data"":{""x"":998,""y"":304,""timestamp"":40299.80000001192},""timestamp"":40299.80000001192},{""type"":""chart_hover"",""data"":{""x"":995,""y"":307,""timestamp"":40316.5},""timestamp"":40316.5},{""type"":""chart_hover"",""data"":{""x"":994,""y"":307,""timestamp"":40333.20000001788},""timestamp"":40333.20000001788},{""type"":""chart_hover"",""data"":{""x"":993,""y"":309,""timestamp"":40349.80000001192},""timestamp"":40349.80000001192},{""type"":""chart_hover"",""data"":{""x"":985,""y"":317,""timestamp"":40366.40000000596},""timestamp"":40366.40000000596},{""type"":""chart_hover"",""data"":{""x"":943,""y"":364,""timestamp"":40383.20000001788},""timestamp"":40383.20000001788},{""type"":""chart_hover"",""data"":{""x"":885,""y"":431,""timestamp"":40399.90000000596},""timestamp"":40399.90000000596},{""type"":""chart_hover"",""data"":{""x"":815,""y"":517,""timestamp"":40416.59999999404},""timestamp"":40416.59999999404},{""type"":""chart_leave"",""data"":{""timestamp"":40433.20000001788},""timestamp"":40433.20000001788},{""type"":""chart_enter"",""data"":{""timestamp"":43953.40000000596},""timestamp"":43953.40000000596},{""type"":""chart_hover"",""data"":{""x"":821,""y"":543,""timestamp"":43953.40000000596},""timestamp"":43953.40000000596},{""type"":""chart_hover"",""data"":{""x"":832,""y"":461,""timestamp"":43970.5},""timestamp"":43970.5},{""type"":""chart_hover"",""data"":{""x"":853,""y"":403,""timestamp"":43987.09999999404},""timestamp"":43987.09999999404},{""type"":""chart_hover"",""data"":{""x"":863,""y"":379,""timestamp"":44003.80000001192},""timestamp"":44003.80000001192},{""type"":""chart_hover"",""data"":{""x"":868,""y"":366,""timestamp"":44020.5},""timestamp"":44020.5},{""type"":""chart_hover"",""data"":{""x"":870,""y"":357,""timestamp"":44037.09999999404},""timestamp"":44037.09999999404},{""type"":""chart_hover"",""data"":{""x"":871,""y"":347,""timestamp"":44054},""timestamp"":44054},{""type"":""chart_hover"",""data"":{""x"":871,""y"":337,""timestamp"":44070.70000001788},""timestamp"":44070.70000001788},{""type"":""chart_hover"",""data"":{""x"":871,""y"":331,""timestamp"":44087.20000001788},""timestamp"":44087.20000001788},{""type"":""chart_hover"",""data"":{""x"":871,""y"":330,""timestamp"":44103.90000000596},""timestamp"":44103.90000000596},{""type"":""chart_hover"",""data"":{""x"":876,""y"":329,""timestamp"":44137.20000001788},""timestamp"":44137.20000001788},{""type"":""chart_hover"",""data"":{""x"":898,""y"":329,""timestamp"":44153.90000000596},""timestamp"":44153.90000000596},{""type"":""chart_hover"",""data"":{""x"":915,""y"":326,""timestamp"":44170.59999999404},""timestamp"":44170.59999999404},{""type"":""chart_hover"",""data"":{""x"":924,""y"":321,""timestamp"":44187.20000001788},""timestamp"":44187.20000001788},{""type"":""chart_hover"",""data"":{""x"":925,""y"":319,""timestamp"":44599.20000001788},""timestamp"":44599.30000001192},{""type"":""chart_hover"",""data"":{""x"":928,""y"":319,""timestamp"":44623.09999999404},""timestamp"":44623.09999999404},{""type"":""chart_hover"",""data"":{""x"":928,""y"":317,""timestamp"":44637.5},""timestamp"":44637.5},{""type"":""chart_hover"",""data"":{""x"":930,""y"":311,""timestamp"":44654.20000001788},""timestamp"":44654.20000001788},{""type"":""chart_hover"",""data"":{""x"":933,""y"":307,""timestamp"":44670.70000001788},""timestamp"":44670.70000001788},{""type"":""chart_hover"",""data"":{""x"":934,""y"":302,""timestamp"":44687.40000000596},""timestamp"":44687.40000000596},{""type"":""chart_hover"",""data"":{""x"":934,""y"":300,""timestamp"":44704.20000001788},""timestamp"":44704.20000001788},{""type"":""chart_hover"",""data"":{""x"":934,""y"":298,""timestamp"":44720.90000000596},""timestamp"":44720.90000000596},{""type"":""chart_hover"",""data"":{""x"":934,""y"":296,""timestamp"":44737.5},""timestamp"":44737.5},{""type"":""chart_hover"",""data"":{""x"":939,""y"":292,""timestamp"":44754.20000001788},""timestamp"":44754.20000001788},{""type"":""chart_hover"",""data"":{""x"":945,""y"":288,""timestamp"":44771.09999999404},""timestamp"":44771.09999999404},{""type"":""chart_hover"",""data"":{""x"":948,""y"":284,""timestamp"":44788.09999999404},""timestamp"":44788.09999999404},{""type"":""chart_hover"",""data"":{""x"":949,""y"":283,""timestamp"":44804.20000001788},""timestamp"":44804.20000001788},{""type"":""chart_hover"",""data"":{""x"":949,""y"":282,""timestamp"":44820.90000000596},""timestamp"":44820.90000000596},{""type"":""chart_hover"",""data"":{""x"":949,""y"":280,""timestamp"":44837.59999999404},""timestamp"":44837.59999999404},{""type"":""chart_hover"",""data"":{""x"":950,""y"":280,""timestamp"":44855.20000001788},""timestamp"":44855.20000001788},{""type"":""chart_hover"",""data"":{""x"":952,""y"":279,""timestamp"":45039.30000001192},""timestamp"":45039.30000001192},{""type"":""chart_hover"",""data"":{""x"":955,""y"":278,""timestamp"":45054.5},""timestamp"":45054.5},{""type"":""chart_hover"",""data"":{""x"":966,""y"":277,""timestamp"":45071.09999999404},""timestamp"":45071.09999999404},{""type"":""chart_hover"",""data"":{""x"":977,""y"":275,""timestamp"":45087.90000000596},""timestamp"":45087.90000000596},{""type"":""chart_hover"",""data"":{""x"":989,""y"":275,""timestamp"":45104.5},""timestamp"":45104.5},{""type"":""chart_hover"",""data"":{""x"":994,""y"":275,""timestamp"":45121.30000001192},""timestamp"":45121.30000001192},{""type"":""chart_hover"",""data"":{""x"":996,""y"":275,""timestamp"":45137.90000000596},""timestamp"":45137.90000000596},{""type"":""chart_hover"",""data"":{""x"":997,""y"":275,""timestamp"":45154.80000001192},""timestamp"":45154.80000001192},{""type"":""chart_hover"",""data"":{""x"":1000,""y"":275,""timestamp"":45172.20000001788},""timestamp"":45172.20000001788},{""type"":""chart_hover"",""data"":{""x"":1001,""y"":275,""timestamp"":45199.09999999404},""timestamp"":45199.09999999404},{""type"":""chart_hover"",""data"":{""x"":1002,""y"":275,""timestamp"":45215},""timestamp"":45215},{""type"":""chart_hover"",""data"":{""x"":1003,""y"":275,""timestamp"":45223},""timestamp"":45223},{""type"":""chart_hover"",""data"":{""x"":1004,""y"":274,""timestamp"":45238.90000000596},""timestamp"":45238.90000000596},{""type"":""chart_hover"",""data"":{""x"":1004,""y"":272,""timestamp"":45254.70000001788},""timestamp"":45254.70000001788},{""type"":""chart_hover"",""data"":{""x"":1006,""y"":271,""timestamp"":45271.40000000596},""timestamp"":45271.40000000596},{""type"":""chart_hover"",""data"":{""x"":1007,""y"":270,""timestamp"":45295.09999999404},""timestamp"":45295.09999999404},{""type"":""chart_hover"",""data"":{""x"":1008,""y"":269,""timestamp"":45319.09999999404},""timestamp"":45319.09999999404},{""type"":""chart_hover"",""data"":{""x"":1009,""y"":268,""timestamp"":45334.90000000596},""timestamp"":45334.90000000596},{""type"":""chart_hover"",""data"":{""x"":1009,""y"":266,""timestamp"":45343},""timestamp"":45343},{""type"":""chart_hover"",""data"":{""x"":1010,""y"":263,""timestamp"":45354.80000001192},""timestamp"":45354.80000001192},{""type"":""chart_hover"",""data"":{""x"":1011,""y"":260,""timestamp"":45371.5},""timestamp"":45371.5},{""type"":""chart_hover"",""data"":{""x"":1012,""y"":257,""timestamp"":45388.20000001788},""timestamp"":45388.20000001788},{""type"":""chart_hover"",""data"":{""x"":1013,""y"":256,""timestamp"":45404.90000000596},""timestamp"":45404.90000000596},{""type"":""chart_hover"",""data"":{""x"":1013,""y"":259,""timestamp"":45551.30000001192},""timestamp"":45551.30000001192},{""type"":""chart_hover"",""data"":{""x"":1013,""y"":261,""timestamp"":45559.20000001788},""timestamp"":45559.20000001788},{""type"":""chart_hover"",""data"":{""x"":1012,""y"":263,""timestamp"":45571.70000001788},""timestamp"":45571.70000001788},{""type"":""chart_hover"",""data"":{""x"":1011,""y"":267,""timestamp"":45588.40000000596},""timestamp"":45588.40000000596},{""type"":""chart_hover"",""data"":{""x"":1010,""y"":268,""timestamp"":45607},""timestamp"":45607},{""type"":""chart_hover"",""data"":{""x"":1009,""y"":269,""timestamp"":46007.70000001788},""timestamp"":46007.70000001788},{""type"":""chart_hover"",""data"":{""x"":1008,""y"":269,""timestamp"":46022.40000000596},""timestamp"":46022.40000000596},{""type"":""chart_hover"",""data"":{""x"":1005,""y"":269,""timestamp"":46039},""timestamp"":46039},{""type"":""chart_hover"",""data"":{""x"":1002,""y"":269,""timestamp"":46055.59999999404},""timestamp"":46055.59999999404},{""type"":""chart_hover"",""data"":{""x"":1000,""y"":269,""timestamp"":46239},""timestamp"":46239},{""type"":""chart_hover"",""data"":{""x"":998,""y"":269,""timestamp"":46255.70000001788},""timestamp"":46255.70000001788},{""type"":""chart_hover"",""data"":{""x"":994,""y"":269,""timestamp"":46272.40000000596},""timestamp"":46272.40000000596},{""type"":""chart_hover"",""data"":{""x"":992,""y"":269,""timestamp"":46289},""timestamp"":46289},{""type"":""chart_hover"",""data"":{""x"":991,""y"":268,""timestamp"":46305.80000001192},""timestamp"":46305.80000001192},{""type"":""chart_hover"",""data"":{""x"":990,""y"":268,""timestamp"":46322.5},""timestamp"":46322.5},{""type"":""chart_hover"",""data"":{""x"":992,""y"":268,""timestamp"":46471.59999999404},""timestamp"":46471.59999999404},{""type"":""chart_hover"",""data"":{""x"":997,""y"":268,""timestamp"":46479},""timestamp"":46479},{""type"":""chart_hover"",""data"":{""x"":1001,""y"":268,""timestamp"":46489.30000001192},""timestamp"":46489.30000001192},{""type"":""chart_hover"",""data"":{""x"":1008,""y"":268,""timestamp"":46506.09999999404},""timestamp"":46506.09999999404},{""type"":""chart_hover"",""data"":{""x"":1013,""y"":268,""timestamp"":46522.70000001788},""timestamp"":46522.70000001788},{""type"":""chart_hover"",""data"":{""x"":1018,""y"":268,""timestamp"":46539.30000001192},""timestamp"":46539.30000001192},{""type"":""chart_hover"",""data"":{""x"":1022,""y"":268,""timestamp"":46556},""timestamp"":46556},{""type"":""chart_hover"",""data"":{""x"":1027,""y"":267,""timestamp"":46572.70000001788},""timestamp"":46572.70000001788},{""type"":""chart_hover"",""data"":{""x"":1031,""y"":264,""timestamp"":46589.5},""timestamp"":46589.5},{""type"":""chart_hover"",""data"":{""x"":1035,""y"":261,""timestamp"":46606},""timestamp"":46606},{""type"":""chart_hover"",""data"":{""x"":1039,""y"":258,""timestamp"":46622.70000001788},""timestamp"":46622.70000001788},{""type"":""chart_hover"",""data"":{""x"":1046,""y"":256,""timestamp"":46639.40000000596},""timestamp"":46639.40000000596},{""type"":""chart_hover"",""data"":{""x"":1048,""y"":256,""timestamp"":46656.09999999404},""timestamp"":46656.09999999404},{""type"":""chart_hover"",""data"":{""x"":1049,""y"":255,""timestamp"":46672.80000001192},""timestamp"":46672.80000001192},{""type"":""chart_hover"",""data"":{""x"":1051,""y"":255,""timestamp"":46689.5},""timestamp"":46689.5},{""type"":""chart_hover"",""data"":{""x"":1052,""y"":255,""timestamp"":46791.30000001192},""timestamp"":46791.30000001192},{""type"":""chart_hover"",""data"":{""x"":1053,""y"":255,""timestamp"":46806.30000001192},""timestamp"":46806.30000001192},{""type"":""chart_hover"",""data"":{""x"":1053,""y"":256,""timestamp"":46822.80000001192},""timestamp"":46822.80000001192},{""type"":""chart_hover"",""data"":{""x"":1054,""y"":257,""timestamp"":46839.59999999404},""timestamp"":46839.59999999404},{""type"":""chart_hover"",""data"":{""x"":1054,""y"":259,""timestamp"":46856.30000001192},""timestamp"":46856.30000001192},{""type"":""chart_hover"",""data"":{""x"":1054,""y"":260,""timestamp"":46872.90000000596},""timestamp"":46872.90000000596},{""type"":""chart_hover"",""data"":{""x"":1055,""y"":261,""timestamp"":47007.5},""timestamp"":47007.5},{""type"":""chart_hover"",""data"":{""x"":1057,""y"":262,""timestamp"":47056.5},""timestamp"":47056.5},{""type"":""chart_hover"",""data"":{""x"":1058,""y"":263,""timestamp"":47073.20000001788},""timestamp"":47073.20000001788},{""type"":""chart_hover"",""data"":{""x"":1059,""y"":264,""timestamp"":47089.90000000596},""timestamp"":47089.90000000596},{""type"":""chart_hover"",""data"":{""x"":1059,""y"":266,""timestamp"":47106.5},""timestamp"":47106.5},{""type"":""chart_hover"",""data"":{""x"":1060,""y"":267,""timestamp"":47123.20000001788},""timestamp"":47123.20000001788},{""type"":""chart_hover"",""data"":{""x"":1060,""y"":269,""timestamp"":47143.09999999404},""timestamp"":47143.09999999404},{""type"":""chart_hover"",""data"":{""x"":1061,""y"":269,""timestamp"":47156.70000001788},""timestamp"":47156.70000001788},{""type"":""chart_hover"",""data"":{""x"":1061,""y"":270,""timestamp"":47173.30000001192},""timestamp"":47173.30000001192},{""type"":""chart_hover"",""data"":{""x"":1061,""y"":272,""timestamp"":47190},""timestamp"":47190},{""type"":""chart_hover"",""data"":{""x"":1062,""y"":272,""timestamp"":47206.80000001192},""timestamp"":47206.80000001192},{""type"":""chart_hover"",""data"":{""x"":1062,""y"":273,""timestamp"":47273.40000000596},""timestamp"":47273.40000000596},{""type"":""chart_hover"",""data"":{""x"":1064,""y"":273,""timestamp"":47290.09999999404},""timestamp"":47290.09999999404},{""type"":""chart_hover"",""data"":{""x"":1067,""y"":273,""timestamp"":47306.80000001192},""timestamp"":47306.80000001192},{""type"":""chart_hover"",""data"":{""x"":1071,""y"":273,""timestamp"":47323.5},""timestamp"":47323.5},{""type"":""chart_hover"",""data"":{""x"":1074,""y"":273,""timestamp"":47340.09999999404},""timestamp"":47340.09999999404},{""type"":""chart_hover"",""data"":{""x"":1077,""y"":272,""timestamp"":47356.90000000596},""timestamp"":47356.90000000596},{""type"":""chart_hover"",""data"":{""x"":1077,""y"":271,""timestamp"":47373.5},""timestamp"":47373.5},{""type"":""chart_hover"",""data"":{""x"":1080,""y"":271,""timestamp"":47423.59999999404},""timestamp"":47423.59999999404},{""type"":""chart_hover"",""data"":{""x"":1081,""y"":270,""timestamp"":47440.30000001192},""timestamp"":47440.30000001192},{""type"":""chart_hover"",""data"":{""x"":1082,""y"":270,""timestamp"":47456.90000000596},""timestamp"":47456.90000000596},{""type"":""chart_hover"",""data"":{""x"":1084,""y"":270,""timestamp"":47473.59999999404},""timestamp"":47473.59999999404},{""type"":""chart_hover"",""data"":{""x"":1087,""y"":269,""timestamp"":47490.30000001192},""timestamp"":47490.30000001192},{""type"":""chart_hover"",""data"":{""x"":1089,""y"":269,""timestamp"":47507},""timestamp"":47507},{""type"":""chart_hover"",""data"":{""x"":1092,""y"":268,""timestamp"":47523.80000001192},""timestamp"":47523.80000001192},{""type"":""chart_hover"",""data"":{""x"":1095,""y"":268,""timestamp"":47540.40000000596},""timestamp"":47540.40000000596},{""type"":""chart_hover"",""data"":{""x"":1099,""y"":267,""timestamp"":47557.70000001788},""timestamp"":47557.70000001788},{""type"":""chart_hover"",""data"":{""x"":1102,""y"":266,""timestamp"":47573.70000001788},""timestamp"":47573.70000001788},{""type"":""chart_hover"",""data"":{""x"":1104,""y"":265,""timestamp"":47590.40000000596},""timestamp"":47590.40000000596},{""type"":""chart_hover"",""data"":{""x"":1107,""y"":263,""timestamp"":47607.09999999404},""timestamp"":47607.09999999404},{""type"":""chart_hover"",""data"":{""x"":1109,""y"":263,""timestamp"":47751.20000001788},""timestamp"":47751.20000001788},{""type"":""chart_hover"",""data"":{""x"":1110,""y"":263,""timestamp"":47759},""timestamp"":47759},{""type"":""chart_hover"",""data"":{""x"":1110,""y"":264,""timestamp"":47775},""timestamp"":47775},{""type"":""chart_hover"",""data"":{""x"":1111,""y"":266,""timestamp"":47790.59999999404},""timestamp"":47790.59999999404},{""type"":""chart_hover"",""data"":{""x"":1113,""y"":267,""timestamp"":47807.30000001192},""timestamp"":47807.30000001192},{""type"":""chart_hover"",""data"":{""x"":1114,""y"":268,""timestamp"":47824},""timestamp"":47824},{""type"":""chart_hover"",""data"":{""x"":1115,""y"":268,""timestamp"":47847.20000001788},""timestamp"":47847.20000001788},{""type"":""chart_hover"",""data"":{""x"":1118,""y"":268,""timestamp"":47857.5},""timestamp"":47857.5},{""type"":""chart_hover"",""data"":{""x"":1121,""y"":268,""timestamp"":47874.70000001788},""timestamp"":47874.70000001788},{""type"":""chart_hover"",""data"":{""x"":1124,""y"":268,""timestamp"":47890.70000001788},""timestamp"":47890.70000001788},{""type"":""chart_hover"",""data"":{""x"":1126,""y"":268,""timestamp"":47907.40000000596},""timestamp"":47907.40000000596},{""type"":""chart_hover"",""data"":{""x"":1128,""y"":268,""timestamp"":47924.09999999404},""timestamp"":47924.09999999404},{""type"":""chart_hover"",""data"":{""x"":1131,""y"":268,""timestamp"":47940.90000000596},""timestamp"":47940.90000000596},{""type"":""chart_hover"",""data"":{""x"":1133,""y"":268,""timestamp"":47958.09999999404},""timestamp"":47958.09999999404},{""type"":""chart_hover"",""data"":{""x"":1134,""y"":267,""timestamp"":47974.09999999404},""timestamp"":47974.09999999404},{""type"":""chart_hover"",""data"":{""x"":1135,""y"":266,""timestamp"":47990.80000001192},""timestamp"":47990.80000001192},{""type"":""chart_hover"",""data"":{""x"":1137,""y"":266,""timestamp"":48007.40000000596},""timestamp"":48007.40000000596},{""type"":""chart_hover"",""data"":{""x"":1139,""y"":266,""timestamp"":48024.30000001192},""timestamp"":48024.30000001192},{""type"":""chart_hover"",""data"":{""x"":1141,""y"":266,""timestamp"":48040.90000000596},""timestamp"":48040.90000000596},{""type"":""chart_hover"",""data"":{""x"":1144,""y"":265,""timestamp"":48057.59999999404},""timestamp"":48057.59999999404},{""type"":""chart_hover"",""data"":{""x"":1146,""y"":265,""timestamp"":48074.09999999404},""timestamp"":48074.09999999404},{""type"":""chart_hover"",""data"":{""x"":1147,""y"":265,""timestamp"":48090.90000000596},""timestamp"":48090.90000000596},{""type"":""chart_hover"",""data"":{""x"":1148,""y"":265,""timestamp"":48111},""timestamp"":48111},{""type"":""chart_hover"",""data"":{""x"":1149,""y"":265,""timestamp"":48135},""timestamp"":48135},{""type"":""chart_hover"",""data"":{""x"":1150,""y"":265,""timestamp"":48151},""timestamp"":48151},{""type"":""chart_hover"",""data"":{""x"":1151,""y"":265,""timestamp"":48159},""timestamp"":48159},{""type"":""chart_hover"",""data"":{""x"":1152,""y"":265,""timestamp"":48174.30000001192},""timestamp"":48174.30000001192},{""type"":""chart_hover"",""data"":{""x"":1153,""y"":266,""timestamp"":48190.90000000596},""timestamp"":48190.90000000596},{""type"":""chart_hover"",""data"":{""x"":1154,""y"":266,""timestamp"":48207.80000001192},""timestamp"":48207.80000001192},{""type"":""chart_hover"",""data"":{""x"":1155,""y"":266,""timestamp"":48257.70000001788},""timestamp"":48257.70000001788},{""type"":""chart_hover"",""data"":{""x"":1156,""y"":267,""timestamp"":48274.40000000596},""timestamp"":48274.5},{""type"":""chart_hover"",""data"":{""x"":1156,""y"":268,""timestamp"":48292.09999999404},""timestamp"":48292.09999999404},{""type"":""chart_hover"",""data"":{""x"":1157,""y"":268,""timestamp"":48307.80000001192},""timestamp"":48307.80000001192},{""type"":""chart_hover"",""data"":{""x"":1157,""y"":269,""timestamp"":48324.59999999404},""timestamp"":48324.59999999404},{""type"":""chart_hover"",""data"":{""x"":1159,""y"":269,""timestamp"":48743.40000000596},""timestamp"":48743.40000000596},{""type"":""chart_hover"",""data"":{""x"":1163,""y"":269,""timestamp"":48758.40000000596},""timestamp"":48758.40000000596},{""type"":""chart_hover"",""data"":{""x"":1171,""y"":269,""timestamp"":48775.20000001788},""timestamp"":48775.20000001788},{""type"":""chart_hover"",""data"":{""x"":1174,""y"":269,""timestamp"":48791.5},""timestamp"":48791.5},{""type"":""chart_hover"",""data"":{""x"":1176,""y"":269,""timestamp"":48808.30000001192},""timestamp"":48808.30000001192},{""type"":""chart_hover"",""data"":{""x"":1177,""y"":269,""timestamp"":48858.40000000596},""timestamp"":48858.40000000596},{""type"":""chart_hover"",""data"":{""x"":1179,""y"":269,""timestamp"":48879},""timestamp"":48879},{""type"":""chart_hover"",""data"":{""x"":1181,""y"":269,""timestamp"":48891.70000001788},""timestamp"":48891.70000001788},{""type"":""chart_hover"",""data"":{""x"":1186,""y"":269,""timestamp"":48908.40000000596},""timestamp"":48908.40000000596},{""type"":""chart_hover"",""data"":{""x"":1187,""y"":269,""timestamp"":48925.70000001788},""timestamp"":48925.70000001788},{""type"":""chart_hover"",""data"":{""x"":1189,""y"":269,""timestamp"":48941.80000001192},""timestamp"":48941.80000001192},{""type"":""chart_hover"",""data"":{""x"":1191,""y"":268,""timestamp"":48958.5},""timestamp"":48958.5},{""type"":""chart_hover"",""data"":{""x"":1193,""y"":268,""timestamp"":48976.30000001192},""timestamp"":48976.30000001192},{""type"":""chart_hover"",""data"":{""x"":1199,""y"":265,""timestamp"":48991.80000001192},""timestamp"":48991.80000001192},{""type"":""chart_hover"",""data"":{""x"":1201,""y"":264,""timestamp"":49008.40000000596},""timestamp"":49008.40000000596},{""type"":""chart_hover"",""data"":{""x"":1204,""y"":263,""timestamp"":49025.09999999404},""timestamp"":49025.09999999404},{""type"":""chart_hover"",""data"":{""x"":1205,""y"":263,""timestamp"":49042},""timestamp"":49042},{""type"":""chart_hover"",""data"":{""x"":1206,""y"":263,""timestamp"":49103.5},""timestamp"":49103.5},{""type"":""chart_hover"",""data"":{""x"":1207,""y"":263,""timestamp"":49118.90000000596},""timestamp"":49118.90000000596},{""type"":""chart_hover"",""data"":{""x"":1208,""y"":262,""timestamp"":49134.90000000596},""timestamp"":49134.90000000596},{""type"":""chart_hover"",""data"":{""x"":1209,""y"":261,""timestamp"":49183.20000001788},""timestamp"":49183.20000001788},{""type"":""chart_hover"",""data"":{""x"":1210,""y"":261,""timestamp"":49207},""timestamp"":49207},{""type"":""chart_hover"",""data"":{""x"":1211,""y"":261,""timestamp"":49242},""timestamp"":49242},{""type"":""chart_hover"",""data"":{""x"":1212,""y"":261,""timestamp"":49258.70000001788},""timestamp"":49258.70000001788},{""type"":""chart_hover"",""data"":{""x"":1213,""y"":261,""timestamp"":49327.20000001788},""timestamp"":49327.20000001788},{""type"":""chart_hover"",""data"":{""x"":1215,""y"":261,""timestamp"":49375.5},""timestamp"":49375.5},{""type"":""chart_hover"",""data"":{""x"":1216,""y"":261,""timestamp"":49408.90000000596},""timestamp"":49408.90000000596},{""type"":""chart_hover"",""data"":{""x"":1217,""y"":261,""timestamp"":49425.59999999404},""timestamp"":49425.59999999404},{""type"":""chart_hover"",""data"":{""x"":1219,""y"":260,""timestamp"":49442.30000001192},""timestamp"":49442.30000001192},{""type"":""chart_hover"",""data"":{""x"":1220,""y"":260,""timestamp"":49495.30000001192},""timestamp"":49495.30000001192},{""type"":""chart_hover"",""data"":{""x"":1221,""y"":259,""timestamp"":49511.09999999404},""timestamp"":49511.09999999404},{""type"":""chart_hover"",""data"":{""x"":1222,""y"":259,""timestamp"":49527},""timestamp"":49527},{""type"":""chart_hover"",""data"":{""x"":1223,""y"":259,""timestamp"":49542.40000000596},""timestamp"":49542.40000000596},{""type"":""chart_hover"",""data"":{""x"":1226,""y"":259,""timestamp"":49559},""timestamp"":49559},{""type"":""chart_hover"",""data"":{""x"":1228,""y"":259,""timestamp"":49575.80000001192},""timestamp"":49575.80000001192},{""type"":""chart_hover"",""data"":{""x"":1229,""y"":259,""timestamp"":50287.5},""timestamp"":50287.5},{""type"":""chart_hover"",""data"":{""x"":1227,""y"":262,""timestamp"":50303.30000001192},""timestamp"":50303.30000001192},{""type"":""chart_hover"",""data"":{""x"":1224,""y"":268,""timestamp"":50310.90000000596},""timestamp"":50310.90000000596},{""type"":""chart_hover"",""data"":{""x"":1222,""y"":273,""timestamp"":50326.40000000596},""timestamp"":50326.40000000596},{""type"":""chart_hover"",""data"":{""x"":1209,""y"":293,""timestamp"":50343},""timestamp"":50343},{""type"":""chart_hover"",""data"":{""x"":1202,""y"":302,""timestamp"":50359.70000001788},""timestamp"":50359.70000001788},{""type"":""chart_hover"",""data"":{""x"":1199,""y"":309,""timestamp"":50376.40000000596},""timestamp"":50376.40000000596},{""type"":""chart_hover"",""data"":{""x"":1194,""y"":315,""timestamp"":50393.20000001788},""timestamp"":50393.20000001788},{""type"":""chart_hover"",""data"":{""x"":1191,""y"":321,""timestamp"":50410},""timestamp"":50410},{""type"":""chart_hover"",""data"":{""x"":1187,""y"":327,""timestamp"":50426.59999999404},""timestamp"":50426.59999999404},{""type"":""chart_hover"",""data"":{""x"":1181,""y"":339,""timestamp"":50443.20000001788},""timestamp"":50443.20000001788},{""type"":""chart_hover"",""data"":{""x"":1171,""y"":354,""timestamp"":50459.90000000596},""timestamp"":50460},{""type"":""chart_hover"",""data"":{""x"":1165,""y"":367,""timestamp"":50476.59999999404},""timestamp"":50476.59999999404},{""type"":""chart_hover"",""data"":{""x"":1159,""y"":381,""timestamp"":50493.40000000596},""timestamp"":50493.40000000596},{""type"":""chart_hover"",""data"":{""x"":1151,""y"":393,""timestamp"":50510.70000001788},""timestamp"":50510.70000001788},{""type"":""chart_hover"",""data"":{""x"":1132,""y"":408,""timestamp"":50526.59999999404},""timestamp"":50526.59999999404},{""type"":""chart_hover"",""data"":{""x"":1065,""y"":438,""timestamp"":50543.30000001192},""timestamp"":50543.30000001192},{""type"":""chart_hover"",""data"":{""x"":998,""y"":466,""timestamp"":50560.09999999404},""timestamp"":50560.09999999404},{""type"":""chart_hover"",""data"":{""x"":936,""y"":490,""timestamp"":50576.90000000596},""timestamp"":50576.90000000596},{""type"":""chart_hover"",""data"":{""x"":889,""y"":515,""timestamp"":50594},""timestamp"":50594},{""type"":""chart_hover"",""data"":{""x"":839,""y"":543,""timestamp"":50610},""timestamp"":50610},{""type"":""chart_hover"",""data"":{""x"":792,""y"":566,""timestamp"":50626.59999999404},""timestamp"":50626.59999999404},{""type"":""chart_hover"",""data"":{""x"":758,""y"":584,""timestamp"":50643.40000000596},""timestamp"":50643.40000000596},{""type"":""chart_leave"",""data"":{""timestamp"":50660},""timestamp"":50660},{""type"":""chart_enter"",""data"":{""timestamp"":74150.20000001788},""timestamp"":74150.30000001192},{""type"":""chart_hover"",""data"":{""x"":540,""y"":590,""timestamp"":74150.30000001192},""timestamp"":74150.30000001192},{""type"":""chart_hover"",""data"":{""x"":603,""y"":523,""timestamp"":74167.20000001788},""timestamp"":74167.20000001788},{""type"":""chart_hover"",""data"":{""x"":726,""y"":450,""timestamp"":74183.90000000596},""timestamp"":74183.90000000596},{""type"":""chart_hover"",""data"":{""x"":953,""y"":380,""timestamp"":74200.59999999404},""timestamp"":74200.59999999404},{""type"":""chart_hover"",""data"":{""x"":1158,""y"":323,""timestamp"":74217.20000001788},""timestamp"":74217.20000001788},{""type"":""chart_hover"",""data"":{""x"":1296,""y"":279,""timestamp"":74233.90000000596},""timestamp"":74233.90000000596},{""type"":""chart_hover"",""data"":{""x"":1381,""y"":249,""timestamp"":74250.59999999404},""timestamp"":74250.59999999404},{""type"":""chart_hover"",""data"":{""x"":1390,""y"":243,""timestamp"":74267.30000001192},""timestamp"":74267.30000001192},{""type"":""chart_hover"",""data"":{""x"":1390,""y"":242,""timestamp"":74334},""timestamp"":74334},{""type"":""chart_hover"",""data"":{""x"":1392,""y"":235,""timestamp"":74350.59999999404},""timestamp"":74350.59999999404},{""type"":""chart_hover"",""data"":{""x"":1400,""y"":225,""timestamp"":74367.40000000596},""timestamp"":74367.40000000596},{""type"":""chart_hover"",""data"":{""x"":1407,""y"":215,""timestamp"":74384.09999999404},""timestamp"":74384.09999999404},{""type"":""chart_hover"",""data"":{""x"":1411,""y"":202,""timestamp"":74400.80000001192},""timestamp"":74400.80000001192},{""type"":""chart_hover"",""data"":{""x"":1415,""y"":184,""timestamp"":74417.5},""timestamp"":74417.5},{""type"":""chart_hover"",""data"":{""x"":1417,""y"":163,""timestamp"":74434},""timestamp"":74434},{""type"":""chart_hover"",""data"":{""x"":1418,""y"":142,""timestamp"":74450.90000000596},""timestamp"":74450.90000000596},{""type"":""chart_hover"",""data"":{""x"":1418,""y"":126,""timestamp"":74467.30000001192},""timestamp"":74467.30000001192},{""type"":""chart_hover"",""data"":{""x"":1418,""y"":113,""timestamp"":74483.80000001192},""timestamp"":74483.80000001192},{""type"":""chart_leave"",""data"":{""timestamp"":74500.59999999404},""timestamp"":74500.59999999404},{""type"":""chart_enter"",""data"":{""timestamp"":75518.20000001788},""timestamp"":75518.20000001788},{""type"":""chart_hover"",""data"":{""x"":1370,""y"":135,""timestamp"":75518.30000001192},""timestamp"":75518.30000001192},{""type"":""chart_hover"",""data"":{""x"":1233,""y"":219,""timestamp"":75535.20000001788},""timestamp"":75535.20000001788},{""type"":""chart_hover"",""data"":{""x"":1141,""y"":264,""timestamp"":75551.80000001192},""timestamp"":75551.80000001192},{""type"":""chart_hover"",""data"":{""x"":1010,""y"":314,""timestamp"":75568.59999999404},""timestamp"":75568.59999999404},{""type"":""chart_hover"",""data"":{""x"":902,""y"":359,""timestamp"":75585.30000001192},""timestamp"":75585.30000001192},{""type"":""chart_hover"",""data"":{""x"":797,""y"":408,""timestamp"":75601.90000000596},""timestamp"":75601.90000000596},{""type"":""chart_hover"",""data"":{""x"":695,""y"":452,""timestamp"":75618.70000001788},""timestamp"":75618.70000001788},{""type"":""chart_hover"",""data"":{""x"":600,""y"":495,""timestamp"":75635.30000001192},""timestamp"":75635.30000001192},{""type"":""chart_hover"",""data"":{""x"":538,""y"":523,""timestamp"":75651.90000000596},""timestamp"":75651.90000000596},{""type"":""chart_hover"",""data"":{""x"":489,""y"":543,""timestamp"":75668.59999999404},""timestamp"":75668.59999999404},{""type"":""chart_hover"",""data"":{""x"":451,""y"":560,""timestamp"":75685.5},""timestamp"":75685.5},{""type"":""chart_hover"",""data"":{""x"":431,""y"":567,""timestamp"":75702.09999999404},""timestamp"":75702.09999999404},{""type"":""chart_hover"",""data"":{""x"":419,""y"":570,""timestamp"":75718.70000001788},""timestamp"":75718.70000001788},{""type"":""chart_hover"",""data"":{""x"":410,""y"":573,""timestamp"":75735.40000000596},""timestamp"":75735.40000000596},{""type"":""chart_hover"",""data"":{""x"":408,""y"":573,""timestamp"":75758},""timestamp"":75758},{""type"":""chart_hover"",""data"":{""x"":407,""y"":573,""timestamp"":75768.80000001192},""timestamp"":75768.80000001192},{""type"":""chart_hover"",""data"":{""x"":405,""y"":573,""timestamp"":75785.70000001788},""timestamp"":75785.70000001788},{""type"":""chart_leave"",""data"":{""timestamp"":75802.30000001192},""timestamp"":75802.30000001192}]",0.0-7.0,62e199458482518274623771,,1,,,false,82,,,,1,80542.90000000596,,,,,,510368,,589,,,City A,7,prediction-task,,,,,,true
91,97,0,,,condition_9_combined,Combined PI + Ensemble,Certain,6,,combined_pi_ensemble,,67,"[{""type"":""chart_enter"",""data"":{""timestamp"":29676.09999999404},""timestamp"":29676.19999998808},{""type"":""chart_hover"",""data"":{""x"":1086,""y"":488,""timestamp"":29676.19999998808},""timestamp"":29676.19999998808},{""type"":""chart_hover"",""data"":{""x"":1153,""y"":448,""timestamp"":29693.30000001192},""timestamp"":29693.30000001192},{""type"":""chart_hover"",""data"":{""x"":1215,""y"":396,""timestamp"":29709.80000001192},""timestamp"":29709.80000001192},{""type"":""chart_hover"",""data"":{""x"":1253,""y"":341,""timestamp"":29726.5},""timestamp"":29726.5},{""type"":""chart_hover"",""data"":{""x"":1265,""y"":313,""timestamp"":29743.09999999404},""timestamp"":29743.09999999404},{""type"":""chart_hover"",""data"":{""x"":1270,""y"":288,""timestamp"":29759.80000001192},""timestamp"":29759.80000001192},{""type"":""chart_hover"",""data"":{""x"":1272,""y"":280,""timestamp"":29776.5},""timestamp"":29776.5},{""type"":""chart_hover"",""data"":{""x"":1272,""y"":276,""timestamp"":29793.09999999404},""timestamp"":29793.09999999404},{""type"":""chart_hover"",""data"":{""x"":1272,""y"":269,""timestamp"":29809.90000000596},""timestamp"":29809.90000000596},{""type"":""chart_hover"",""data"":{""x"":1272,""y"":265,""timestamp"":29826.69999998808},""timestamp"":29826.69999998808},{""type"":""chart_hover"",""data"":{""x"":1272,""y"":259,""timestamp"":29843.30000001192},""timestamp"":29843.30000001192},{""type"":""chart_hover"",""data"":{""x"":1272,""y"":255,""timestamp"":29859.90000000596},""timestamp"":29859.90000000596},{""type"":""chart_hover"",""data"":{""x"":1272,""y"":254,""timestamp"":29876.59999999404},""timestamp"":29876.59999999404},{""type"":""chart_hover"",""data"":{""x"":1271,""y"":254,""timestamp"":29943.09999999404},""timestamp"":29943.09999999404},{""type"":""chart_hover"",""data"":{""x"":1255,""y"":259,""timestamp"":29960},""timestamp"":29960},{""type"":""chart_hover"",""data"":{""x"":1234,""y"":261,""timestamp"":29976.80000001192},""timestamp"":29976.80000001192},{""type"":""chart_hover"",""data"":{""x"":1210,""y"":265,""timestamp"":29993.19999998808},""timestamp"":29993.19999998808},{""type"":""chart_hover"",""data"":{""x"":1190,""y"":267,""timestamp"":30009.80000001192},""timestamp"":30009.80000001192},{""type"":""chart_hover"",""data"":{""x"":1177,""y"":267,""timestamp"":30026.5},""timestamp"":30026.5},{""type"":""chart_hover"",""data"":{""x"":1169,""y"":262,""timestamp"":30043.09999999404},""timestamp"":30043.19999998808},{""type"":""chart_hover"",""data"":{""x"":1165,""y"":245,""timestamp"":30060},""timestamp"":30060},{""type"":""chart_hover"",""data"":{""x"":1164,""y"":224,""timestamp"":30076.59999999404},""timestamp"":30076.59999999404},{""type"":""chart_hover"",""data"":{""x"":1164,""y"":204,""timestamp"":30093.5},""timestamp"":30093.5},{""type"":""chart_hover"",""data"":{""x"":1164,""y"":187,""timestamp"":30109.90000000596},""timestamp"":30109.90000000596},{""type"":""chart_hover"",""data"":{""x"":1164,""y"":179,""timestamp"":30127.09999999404},""timestamp"":30127.09999999404},{""type"":""chart_hover"",""data"":{""x"":1164,""y"":178,""timestamp"":30143.19999998808},""timestamp"":30143.19999998808},{""type"":""chart_hover"",""data"":{""x"":1166,""y"":180,""timestamp"":30175.59999999404},""timestamp"":30175.59999999404},{""type"":""chart_hover"",""data"":{""x"":1167,""y"":187,""timestamp"":30183.30000001192},""timestamp"":30183.30000001192},{""type"":""chart_hover"",""data"":{""x"":1171,""y"":194,""timestamp"":30193.30000001192},""timestamp"":30193.30000001192},{""type"":""chart_hover"",""data"":{""x"":1177,""y"":207,""timestamp"":30209.90000000596},""timestamp"":30209.90000000596},{""type"":""chart_hover"",""data"":{""x"":1182,""y"":215,""timestamp"":30226.59999999404},""timestamp"":30226.59999999404},{""type"":""chart_hover"",""data"":{""x"":1183,""y"":218,""timestamp"":30243.30000001192},""timestamp"":30243.30000001192},{""type"":""chart_hover"",""data"":{""x"":1185,""y"":221,""timestamp"":30260},""timestamp"":30260},{""type"":""chart_hover"",""data"":{""x"":1187,""y"":222,""timestamp"":30276.90000000596},""timestamp"":30276.90000000596},{""type"":""chart_hover"",""data"":{""x"":1190,""y"":222,""timestamp"":30294.19999998808},""timestamp"":30294.19999998808},{""type"":""chart_hover"",""data"":{""x"":1194,""y"":222,""timestamp"":30310},""timestamp"":30310},{""type"":""chart_hover"",""data"":{""x"":1199,""y"":222,""timestamp"":30326.80000001192},""timestamp"":30326.80000001192},{""type"":""chart_hover"",""data"":{""x"":1204,""y"":220,""timestamp"":30343.30000001192},""timestamp"":30343.30000001192},{""type"":""chart_hover"",""data"":{""x"":1212,""y"":209,""timestamp"":30360.09999999404},""timestamp"":30360.09999999404},{""type"":""chart_hover"",""data"":{""x"":1216,""y"":197,""timestamp"":30376.90000000596},""timestamp"":30376.90000000596},{""type"":""chart_hover"",""data"":{""x"":1216,""y"":189,""timestamp"":30394.30000001192},""timestamp"":30394.30000001192},{""type"":""chart_hover"",""data"":{""x"":1216,""y"":187,""timestamp"":30410.19999998808},""timestamp"":30410.19999998808},{""type"":""chart_hover"",""data"":{""x"":1216,""y"":186,""timestamp"":30439.30000001192},""timestamp"":30439.30000001192},{""type"":""chart_hover"",""data"":{""x"":1218,""y"":186,""timestamp"":30479.5},""timestamp"":30479.5},{""type"":""chart_hover"",""data"":{""x"":1219,""y"":187,""timestamp"":30493.59999999404},""timestamp"":30493.59999999404},{""type"":""chart_hover"",""data"":{""x"":1221,""y"":187,""timestamp"":30510.30000001192},""timestamp"":30510.30000001192},{""type"":""chart_hover"",""data"":{""x"":1224,""y"":187,""timestamp"":30526.90000000596},""timestamp"":30526.90000000596},{""type"":""chart_hover"",""data"":{""x"":1230,""y"":186,""timestamp"":30543.59999999404},""timestamp"":30543.59999999404},{""type"":""chart_hover"",""data"":{""x"":1234,""y"":183,""timestamp"":30560.40000000596},""timestamp"":30560.5},{""type"":""chart_hover"",""data"":{""x"":1234,""y"":181,""timestamp"":32239.80000001192},""timestamp"":32239.80000001192},{""type"":""chart_hover"",""data"":{""x"":1234,""y"":180,""timestamp"":32255.5},""timestamp"":32255.5},{""type"":""chart_hover"",""data"":{""x"":1234,""y"":181,""timestamp"":32591.5},""timestamp"":32591.5},{""type"":""chart_hover"",""data"":{""x"":1234,""y"":183,""timestamp"":32607.30000001192},""timestamp"":32607.30000001192},{""type"":""chart_hover"",""data"":{""x"":1233,""y"":184,""timestamp"":32615.19999998808},""timestamp"":32615.19999998808},{""type"":""chart_hover"",""data"":{""x"":1233,""y"":185,""timestamp"":32662.5},""timestamp"":32662.5},{""type"":""chart_hover"",""data"":{""x"":1233,""y"":186,""timestamp"":34087.80000001192},""timestamp"":34087.80000001192},{""type"":""chart_hover"",""data"":{""x"":1232,""y"":187,""timestamp"":34103.5},""timestamp"":34103.5},{""type"":""chart_hover"",""data"":{""x"":1229,""y"":189,""timestamp"":35127.59999999404},""timestamp"":35127.59999999404},{""type"":""chart_hover"",""data"":{""x"":1224,""y"":194,""timestamp"":35135.5},""timestamp"":35135.5},{""type"":""chart_hover"",""data"":{""x"":1217,""y"":203,""timestamp"":35148.19999998808},""timestamp"":35148.19999998808},{""type"":""chart_hover"",""data"":{""x"":1196,""y"":227,""timestamp"":35164.90000000596},""timestamp"":35164.90000000596},{""type"":""chart_hover"",""data"":{""x"":1169,""y"":257,""timestamp"":35181.59999999404},""timestamp"":35181.59999999404},{""type"":""chart_hover"",""data"":{""x"":1127,""y"":299,""timestamp"":35198.40000000596},""timestamp"":35198.40000000596},{""type"":""chart_hover"",""data"":{""x"":1084,""y"":336,""timestamp"":35215},""timestamp"":35215},{""type"":""chart_hover"",""data"":{""x"":1052,""y"":366,""timestamp"":35231.5},""timestamp"":35231.59999999404},{""type"":""chart_hover"",""data"":{""x"":1011,""y"":397,""timestamp"":35248.40000000596},""timestamp"":35248.40000000596},{""type"":""chart_hover"",""data"":{""x"":933,""y"":447,""timestamp"":35265},""timestamp"":35265},{""type"":""chart_leave"",""data"":{""timestamp"":35281.80000001192},""timestamp"":35281.80000001192}]",0.0-8.0,62e199458482518274623771,,2,,,true,85,,,,1,44943.19999998808,,,,,,555311,5605.600000023842,69,,,City A,8,prediction-task,,,,,,true
,,,,,,,,,,,,,,0.0-9.0,62e199458482518274623771,,,,,,,,0,,,3695,,,,"
			<div class=""section-intro"">
				<h2>Trust & Experience Assessment</h2>
				<p>Thank you for completing the prediction tasks!</p>
				<p>Now we'd like to understand your experience with the forecast visualization you just used.</p>
			</div>
		",,559008,,,,,,9,html-button-response,,,,,,
,,,,,condition_9_combined,Combined PI + Ensemble,,,,combined_pi_ensemble,,,,0.0-10.0,62e199458482518274623771,,2,,,,,"[""navigation_control"",""content_control"",""pace_control"",""company_communication"",""interface_responsiveness"",""customer_communication"",""personal_conversation"",""interface_interaction"",""interface_sensitivity""]","{""navigation_control"":4,""content_control"":2,""pace_control"":5,""company_communication"":1,""interface_responsiveness"":1,""customer_communication"":0,""personal_conversation"":0,""interface_interaction"":0,""interface_sensitivity"":0}",,1,47497.30000001192,,,,,,606505,,,,,,10,trust-survey,,,,,,
,,,3,,condition_9_combined,Combined PI + Ensemble,,,2,combined_pi_ensemble,,,,0.0-11.0,62e199458482518274623771,,2,,,,,"[""skeptical_rating"",""data_trust"",""usability_difficulty"",""comprehension_ease""]","{""skeptical_rating"":5,""data_trust"":1,""usability_difficulty"":4,""comprehension_ease"":2}",,1,18454.09999999404,,6,,,,624960,,,,,,11,trust-survey,2,3,5,,,
,,,,,,,,,,,,,,0.0-12.0,62e199458482518274623771,,,,,,,,0,,,2630,,,,"
			<div class=""section-intro"">
				<h2>Background Information</h2>
				<p>We're almost finished! This final section will ask for some background information to help us understand our results.</p>
			</div>
		",,627591,,,,,,12,html-button-response,,,,,,
,,,,,condition_9_combined,Combined PI + Ensemble,,,,,,,,0.0-13.0,62e199458482518274623771,,,,,,,"[""respect_others"",""good_word_everyone"",""retreat_from_others"",""avoid_contacts""]","{""respect_others"":3,""good_word_everyone"":3,""retreat_from_others"":1,""avoid_contacts"":1}",,,11816.199999988079,,,,,,639408,,,,,,13,personality-survey,,,,,,
,,,,,condition_9_combined,Combined PI + Ensemble,,,,,,,,0.0-14.0,62e199458482518274623771,,,,,,,,"{""age"":""37"",""major_field"":""Photonic Science and Engineering/Optics""}",,,21933,,,,,,661343,,,,,,14,survey-text,,,,,,
,,,,,condition_9_combined,Combined PI + Ensemble,,,,,,,,0.0-15.0,62e199458482518274623771,,,,,,,"[0,1]","{""education"":""Associate degree"",""viz_experience"":""Daily""}",,,6535,,,,,,667880,,,,,,15,survey-multi-choice,,,,,,
,,,,,,,,,,,,,,0.0-16.0,62e199458482518274623771,,,,,,,,,,,,,,,,true,668882,,,,,,16,fullscreen,,,,,,
,,,,,,,,,,,,,,0.0-17.0,62e199458482518274623771,,,,,,,,0,,,7549,,,,"
            <div class=""debrief"">
                <h2>Thank You!</h2>
                <p>This study investigated how different ways of presenting uncertainty in predictions affect trust and decision-making.</p>
                
                <h3>Study Background:</h3>
                <p>You were randomly assigned to one of nine different visualization conditions. The goal is to understand which formats help people make better decisions and maintain appropriate trust in prediction systems.</p>
                
                <p>The air quality data you saw was synthetic (computer-generated) for research purposes.</p>
                
                <h3>Questions?</h3>
                <p>If you have questions about this research, please contact the research team.</p>
                
                <p>Your participation contributes to understanding how to design better prediction visualizations for real-world applications like weather forecasting, financial predictions, and public health data.</p>
            </div>
        ",,676431,,,,,,17,html-button-response,,,,,,
,,,,"{""id"":""condition_9_combined"",""name"":""Combined PI + Ensemble"",""displayFormat"":""combined_pi_ensemble"",""description"":""Shows both confidence bounds and alternative prediction lines"",""instructions"":""Shade represents the region that there are 95% chance the air quality falls in this region. Each line represent the prediction from one Forecast Agency""}",,,,,,,2025-12-08T17:37:25.102Z,,,,62e199458482518274623771,,,true,true,,,,,,,,,,2025-12-08T17:26:19.888Z,,,,,,,,,,,,,,,3,
