city_a_estimate,city_b_estimate,click_events,comprehension_ease,condition,condition_id,condition_name,confidence_label,confidence_rating,data_trust,display_format,end_time,failed_audio,failed_images,failed_video,hover_events,interaction_log,internal_node_id,participant_id,percent_score,phase,phase1_complete,phase2_complete,predictions_shown,probability_estimate,question_order,response,responses,round,rt,rt_total,skeptical_rating,slider_moved,start_time,stimulus,success,time_elapsed,time_on_viz,timeout,total_interactions,total_questions,total_score,travel_choice,trial_index,trial_type,trust_composite,usability_composite,usability_difficulty,view_history,visualization_literacy_score,visualization_shown
,,,,,,,,,,,,"[]","[]","[]",,,0.0-0.0,64d5219df0415c9a7c609c19,,,,,,,,,,,,,,,,,true,550,,false,,,,,0,preload,,,,,,
,,,,,,,,,,,,,,,,,0.0-1.0,64d5219df0415c9a7c609c19,,,,,,,,0,,,83271,,,,,"
	        <div class=""welcome-screen"">
	            <h1>Air Quality Prediction Study</h1>
	            <p>Welcome! You are about to participate in a research study about how people make decisions using air quality predictions. This study examines how different ways of presenting prediction information affect trust and decision-making. The study will take approximately 15 minutes.</p>
	            <div class=""study-info"">
	                <h3>What you'll do:</h3>
	                <ul>
	                    <li>Complete a brief assessment of visualization understanding</li>
	                    <li>Make predictions about air quality in two cities</li>
	                    <li>Answer questions about your confidence and trust</li>
						<li>Report basic demographic data</li>
	                </ul>
	            </div>
	        </div>
	    ",,83822,,,,,,,1,html-button-response,,,,,,
,,,,,,,,,,,,,,,,,0.0-2.0,64d5219df0415c9a7c609c19,,,,,,,,,,,4718,,,,,,true,89548,,,,,,,2,fullscreen,,,,,,
,,,,,,,,,,,,,,,,,0.0-3.0,64d5219df0415c9a7c609c19,,,,,,,,"{""participant_id"":""64d5219df0415c9a7c609c19""}",,,3647,,,,,,,93197,,,,,,,3,survey-text,,,,,,
,,,,,,,,,,,,,,,,,0.0-4.0,64d5219df0415c9a7c609c19,,,,,,,,0,,,7287,,,,,"
	        <div class=""consent-form"">
	            <h2>Consent Form</h2>
	            <div class=""consent-header"">
	                <p><strong>Principal Investigator:</strong> Dr. Cindy Xiong Bearfield, Assistant Professor</p>
	                <p><strong>Study Title:</strong> Trusting What We See: Effect of Interactivity in Visual Data Analysis</p>
	                <p><strong>Supported By:</strong> Georgia Institute of Technology</p>
	            </div>
	            
	            <div class=""consent-details"">
	                <h3>WHAT IS THIS FORM?</h3>
	                <p>This form is called a Consent Form. It will give you information about the study so you can make an informed decision about participation in this research. We encourage you to take some time to think this over and ask questions now and at any other time. If you decide to participate, you will be asked to sign this form and you will be given a copy for your records.</p>

	                <h3>WHAT ARE SOME OF THE IMPORTANT ASPECTS OF THIS RESEARCH STUDY THAT I SHOULD BE AWARE OF?</h3>
	                <ul>
	                    <li>Whether or not you take part is up to you.</li>
	                    <li>You can choose not to take part.</li>
	                    <li>You can agree to take part and later change your mind.</li>
	                    <li>Your decision will not be held against you.</li>
	                </ul>

	                <h3>WHY ARE WE DOING THIS RESEARCH STUDY?</h3>
	                <p>The purpose of our study is to explore the visualization design space so we can understand how people perceive, interpret, and make decisions from visualizations. The results from this study can help us design visualizations and visualization guidelines to help people better communicate and understand data.</p>

	                <h3>WHO CAN PARTICIPATE IN THIS RESEARCH STUDY?</h3>
	                <p>Participants in this study must be at least 18 years of age or older and have general familiarity with using web-based systems. Participants currently outside of the U.S. cannot participate in this study (e.g. in the European Union or China).</p>

	                <h3>WHAT COMPENSATION I WILL RECEIVE?</h3>
	                <p>You will receive payment through Prolific worth $12/hour for participating in this study. We expect this study to take less than 20 minutes. Your participation is entirely voluntary. You are free to withdraw at any time, and if you do, you will receive partial payment for your time.</p>

	                <h3>HOW MANY PEOPLE WILL PARTICIPATE?</h3>
	                <p>We expect about 200 people will be in this research study.</p>

	                <h3>WHAT WILL I BE ASKED TO DO AND HOW MUCH TIME WILL IT TAKE?</h3>
	                <p>We will show you several data visualizations or components of a visualization and ask you to perform a visual task with the visualization on a computer screen, such as counting, searching, recognizing, memorizing, or describing the information presented to you. We may also ask you to fill out questionnaires concerning your thoughts regarding the visualization you saw. We expect that you will be in this research study to take between 15 and 60 minutes. We expect this study to be a one-off session and will not contact you regarding the study itself in the future.</p>

	                <h3>WILL BEING IN THIS RESEARCH STUDY HELP ME IN ANY WAY?</h3>
	                <p>You are not likely to have any direct benefit from being in this research study. The potential benefits to you from participation may include learning about how data visualization research is conducted, and you may learn about issues of current interest in data visualization and psychology.</p>

	                <h3>WHAT ARE MY RISKS OF BEING IN THIS RESEARCH STUDY?</h3>
	                <p>Your participation in this study does not involve any risks other than what you would encounter in daily life. In particular, you may experience fatigue or boredom, however, you may take breaks between tasks. The effects of participating should be comparable to those you would experience from viewing a computer monitor and using a keyboard. You may withdraw at any time.</p>

	                <h3>HOW WILL MY PERSONAL INFORMATION BE PROTECTED?</h3>
	                <p>We will comply with any applicable laws and regulations regarding confidentiality. To make sure that this research is being carried out in the proper way, the Georgia Institute of Technology IRB may review study records. The Office of Human Research Protections may also look at study records.</p>
	                <p>Efforts will be made to limit the use and disclosure of your personal information, including research study records, to people who need to review this information. We cannot promise complete secrecy. Organizations that may inspect and copy your information include the IRB and other representatives of this institution. Please be notified that our data privacy policy is based on U.S. regulations. Participants who are out of the U.S. might be excluded due to different data privacy requirements.</p>
	                <p><strong>Data Sharing:</strong> De-identified data from this study will be shared among the GATech research team, as well as the research community at large to advance science and health. We will remove or code any personal information that could identify you before files are shared with other researchers to ensure that, by current scientific standards and known methods, no one will be able to identify you from the information we share. Despite these measures, we cannot guarantee the anonymity of your personal data.</p>

	                <h3>WILL I BE GIVEN ANY MONEY OR OTHER COMPENSATION FOR BEING IN THIS RESEARCH STUDY?</h3>
	                <p>If you agree to take part in this research study, we will provide compensation. You will be paid in accordance with the stated policies of Amazon Mechanical Turk and/or Prolific.com. Payment will be made upon completion and acceptance of tasks that you have agreed to complete and you will be paid via Mechanical Turk or Prolific.com. If you choose to withdraw from the study, you will not be compensated for your participation.</p>

	                <h3>WHAT ELSE DO I NEED TO KNOW?</h3>
	                <p>We might be using attention check questions in our surveys. If you miss 2 or more attention check questions, your HIT will not be accepted and you will not be compensated.</p>

	                <h3>WHO CAN I TALK TO IF I HAVE QUESTIONS?</h3>
	                <p>If you have any questions about the content of this research project, you may contact Dr. Cindy Xiong Bearfield at cxiong@gatech.edu, or contact Songwen Hu at shu343@gatech.edu. If you have any questions about your rights as a research subject, you may also contact Georgia Institute of Technology Office of Research Integrity Assurance at IRB@gatech.edu.</p>

	                <h3>WHAT HAPPENS IF I SAY YES, BUT I CHANGE MY MIND LATER?</h3>
	                <p>You can decide not to participate in this research or you can start and then decide to leave the research at any time and it will not be held against you. To do so, simply exit the experiment. Any data already collected will not be saved.</p>

	                <p><strong>By clicking ""I agree"" below you are indicating that you are at least 18 years old, currently in the U.S., have read this consent form, and agree to participate in this research study. Please print a copy of this page for your records.</strong></p>
	            </div>
	        </div>
	    ",,100485,,,,,,,4,html-button-response,,,,,,
,,,,,,,,,,,,,,,,,0.0-5.0,64d5219df0415c9a7c609c19,,,,,,,,0,,,153308,,,,,"
	        <div class=""vis-literacy-intro"">
	            <h2>Visualization Assessment</h2>
	            <p>Before we begin the main study, we'd like to assess your ability to read and interpret data visualizations.</p>
	            
	            <div class=""assessment-info"">
	                <h3>What you'll do:</h3>
	                <ul>
	                    <li>View 12 different data visualizations (charts and graphs)</li>
	                    <li>Answer questions about what each visualization shows</li>
	                    <li>Take your time to examine each chart carefully</li>
	                </ul>
	                
	                <p><strong>This assessment will take approximately 5-10 minutes.</strong></p>
	                <p>There are no right or wrong interpretations - we're interested in how you read visualizations.</p>
	            </div>
	        </div>
	    ",,253794,,,,,,,5,html-button-response,,,,,,
,,,,,condition_8_bad,Bad Control,,,,,,,,,,,0.0-6.0,64d5219df0415c9a7c609c19,75,,,,,,,,"[{""question_id"":""minivlat_1"",""question_type"":""treemap"",""question_text"":""eBay is nested in the Software category."",""response"":1,""correct_answer"":1,""is_correct"":true,""rt"":13311},{""question_id"":""minivlat_2"",""question_type"":""stacked_100_bar"",""question_text"":""Which country has the lowest proportion of Gold medals?"",""response"":1,""correct_answer"":1,""is_correct"":true,""rt"":21896.399999976158},{""question_id"":""minivlat_3"",""question_type"":""histogram"",""question_text"":""What distance have customers traveled the most?"",""response"":1,""correct_answer"":1,""is_correct"":true,""rt"":44081.40000003576},{""question_id"":""minivlat_4"",""question_type"":""choropleth"",""question_text"":""In 2020, the unemployment rate for Washington (WA) was higher than that of Wisconsin (WI)."",""response"":0,""correct_answer"":0,""is_correct"":true,""rt"":21632.099999964237},{""question_id"":""minivlat_5"",""question_type"":""pie_chart"",""question_text"":""What is the approximate global smartphone market share of Samsung?"",""response"":0,""correct_answer"":0,""is_correct"":true,""rt"":21081.30000001192},{""question_id"":""minivlat_6"",""question_type"":""bubble_chart"",""question_text"":""Which has the largest number of metro stations?"",""response"":1,""correct_answer"":1,""is_correct"":true,""rt"":37689.30000001192},{""question_id"":""minivlat_7"",""question_type"":""stacked_bar"",""question_text"":""What is the cost of peanuts in Seoul?"",""response"":4,""correct_answer"":1,""is_correct"":false,""rt"":84234.19999998808},{""question_id"":""minivlat_8"",""question_type"":""line_chart"",""question_text"":""What was the price of a barrel of oil in February 2020?"",""response"":0,""correct_answer"":0,""is_correct"":true,""rt"":25064.600000023842},{""question_id"":""minivlat_9"",""question_type"":""bar_chart"",""question_text"":""What is the average internet speed in Japan?"",""response"":1,""correct_answer"":1,""is_correct"":true,""rt"":52409.5},{""question_id"":""minivlat_10"",""question_type"":""area_chart"",""question_text"":""What was the average price of a pound of coffee in October 2019?"",""response"":0,""correct_answer"":0,""is_correct"":true,""rt"":24792.599999964237},{""question_id"":""minivlat_11"",""question_type"":""stacked_area"",""question_text"":""What was the ratio of girls named \""Isla\"" to girls named \""Amelia\"" in 2012 in the UK?"",""response"":4,""correct_answer"":1,""is_correct"":false,""rt"":74538.20000004768},{""question_id"":""minivlat_12"",""question_type"":""scatter_plot"",""question_text"":""There is a negative relationship between the height and weight of the 85 males."",""response"":2,""correct_answer"":1,""is_correct"":false,""rt"":22744.69999998808}]",,,443475.3000000119,,,,,,697270,,,,12,9,,6,vis-literacy,,,,,,
,,,,,,,,,,,,,,,,,0.0-7.0,64d5219df0415c9a7c609c19,,,,,,,,,,,33481,,,,,,,730752,,,,,,,7,instructions,,,,"[{""page_index"":0,""viewing_time"":33481}]",,
85,93,,,,condition_0_historical,Historical Only,Somewhat Uncertain,3,,historical_only,,,,,,"[{""type"":""chart_enter"",""data"":{""timestamp"":563},""timestamp"":563},{""type"":""chart_hover"",""data"":{""x"":1005,""y"":428,""timestamp"":753.8999999761581},""timestamp"":753.8999999761581},{""type"":""chart_hover"",""data"":{""x"":1002,""y"":428,""timestamp"":759.6000000238419},""timestamp"":759.6000000238419},{""type"":""chart_hover"",""data"":{""x"":997,""y"":427,""timestamp"":767},""timestamp"":767},{""type"":""chart_hover"",""data"":{""x"":987,""y"":425,""timestamp"":774.5},""timestamp"":774.5},{""type"":""chart_hover"",""data"":{""x"":974,""y"":424,""timestamp"":787.1000000238419},""timestamp"":787.1000000238419},{""type"":""chart_hover"",""data"":{""x"":959,""y"":424,""timestamp"":793.5},""timestamp"":793.5},{""type"":""chart_hover"",""data"":{""x"":941,""y"":424,""timestamp"":798.3000000119209},""timestamp"":798.3000000119209},{""type"":""chart_hover"",""data"":{""x"":919,""y"":424,""timestamp"":806.1000000238419},""timestamp"":806.1000000238419},{""type"":""chart_hover"",""data"":{""x"":895,""y"":424,""timestamp"":814.3000000119209},""timestamp"":814.3999999761581},{""type"":""chart_hover"",""data"":{""x"":870,""y"":424,""timestamp"":825.8999999761581},""timestamp"":825.8999999761581},{""type"":""chart_hover"",""data"":{""x"":848,""y"":424,""timestamp"":831.3000000119209},""timestamp"":831.3000000119209},{""type"":""chart_hover"",""data"":{""x"":825,""y"":425,""timestamp"":838.1999999880791},""timestamp"":838.1999999880791},{""type"":""chart_hover"",""data"":{""x"":806,""y"":425,""timestamp"":846.1000000238419},""timestamp"":846.1000000238419},{""type"":""chart_hover"",""data"":{""x"":789,""y"":427,""timestamp"":859.3000000119209},""timestamp"":859.3000000119209},{""type"":""chart_hover"",""data"":{""x"":774,""y"":428,""timestamp"":864.8000000119209},""timestamp"":864.8000000119209},{""type"":""chart_hover"",""data"":{""x"":761,""y"":429,""timestamp"":870.5},""timestamp"":870.5},{""type"":""chart_hover"",""data"":{""x"":747,""y"":430,""timestamp"":878.1999999880791},""timestamp"":878.1999999880791},{""type"":""chart_hover"",""data"":{""x"":736,""y"":430,""timestamp"":886.1999999880791},""timestamp"":886.1999999880791},{""type"":""chart_hover"",""data"":{""x"":725,""y"":431,""timestamp"":898.1000000238419},""timestamp"":898.1000000238419},{""type"":""chart_hover"",""data"":{""x"":715,""y"":432,""timestamp"":903.5},""timestamp"":903.5},{""type"":""chart_hover"",""data"":{""x"":706,""y"":432,""timestamp"":910.1999999880791},""timestamp"":910.1999999880791},{""type"":""chart_hover"",""data"":{""x"":699,""y"":433,""timestamp"":918.1999999880791},""timestamp"":918.1999999880791},{""type"":""chart_hover"",""data"":{""x"":694,""y"":433,""timestamp"":931.5},""timestamp"":931.5},{""type"":""chart_hover"",""data"":{""x"":690,""y"":433,""timestamp"":937},""timestamp"":937},{""type"":""chart_hover"",""data"":{""x"":687,""y"":433,""timestamp"":942.6000000238419},""timestamp"":942.6000000238419},{""type"":""chart_hover"",""data"":{""x"":686,""y"":433,""timestamp"":950.1000000238419},""timestamp"":950.1000000238419},{""type"":""chart_leave"",""data"":{""timestamp"":2410.399999976158},""timestamp"":2410.399999976158},{""type"":""chart_enter"",""data"":{""timestamp"":86360.69999998808},""timestamp"":86360.69999998808},{""type"":""chart_hover"",""data"":{""x"":1002,""y"":599,""timestamp"":86360.69999998808},""timestamp"":86360.69999998808},{""type"":""chart_hover"",""data"":{""x"":1002,""y"":596,""timestamp"":86374.80000001192},""timestamp"":86374.89999997616},{""type"":""chart_hover"",""data"":{""x"":1001,""y"":594,""timestamp"":86384},""timestamp"":86384},{""type"":""chart_hover"",""data"":{""x"":1001,""y"":593,""timestamp"":86389.5},""timestamp"":86389.5},{""type"":""chart_hover"",""data"":{""x"":1000,""y"":591,""timestamp"":86395.10000002384},""timestamp"":86395.10000002384},{""type"":""chart_hover"",""data"":{""x"":1000,""y"":590,""timestamp"":86411.80000001192},""timestamp"":86411.80000001192},{""type"":""chart_hover"",""data"":{""x"":1000,""y"":588,""timestamp"":86721.39999997616},""timestamp"":86721.39999997616},{""type"":""chart_hover"",""data"":{""x"":1000,""y"":586,""timestamp"":86734},""timestamp"":86734},{""type"":""chart_hover"",""data"":{""x"":999,""y"":584,""timestamp"":86739.5},""timestamp"":86739.5},{""type"":""chart_hover"",""data"":{""x"":998,""y"":582,""timestamp"":86744.89999997616},""timestamp"":86744.89999997616},{""type"":""chart_hover"",""data"":{""x"":997,""y"":581,""timestamp"":86752.5},""timestamp"":86752.5},{""type"":""chart_hover"",""data"":{""x"":997,""y"":579,""timestamp"":86761},""timestamp"":86761},{""type"":""chart_hover"",""data"":{""x"":997,""y"":578,""timestamp"":86772.80000001192},""timestamp"":86772.80000001192},{""type"":""chart_hover"",""data"":{""x"":997,""y"":577,""timestamp"":86778.39999997616},""timestamp"":86778.39999997616},{""type"":""chart_hover"",""data"":{""x"":996,""y"":575,""timestamp"":86784.69999998808},""timestamp"":86784.69999998808},{""type"":""chart_hover"",""data"":{""x"":996,""y"":573,""timestamp"":86801.19999998808},""timestamp"":86801.19999998808},{""type"":""chart_hover"",""data"":{""x"":996,""y"":572,""timestamp"":86817.19999998808},""timestamp"":86817.19999998808},{""type"":""chart_hover"",""data"":{""x"":996,""y"":571,""timestamp"":86833.80000001192},""timestamp"":86833.80000001192},{""type"":""chart_hover"",""data"":{""x"":995,""y"":570,""timestamp"":86850.60000002384},""timestamp"":86850.60000002384},{""type"":""chart_hover"",""data"":{""x"":995,""y"":569,""timestamp"":86857.19999998808},""timestamp"":86857.19999998808},{""type"":""chart_hover"",""data"":{""x"":995,""y"":568,""timestamp"":86946.5},""timestamp"":86946.5},{""type"":""chart_hover"",""data"":{""x"":995,""y"":567,""timestamp"":87002.5},""timestamp"":87002.5},{""type"":""chart_hover"",""data"":{""x"":996,""y"":565,""timestamp"":90514.39999997616},""timestamp"":90514.39999997616},{""type"":""chart_hover"",""data"":{""x"":998,""y"":564,""timestamp"":90520.80000001192},""timestamp"":90520.80000001192},{""type"":""chart_hover"",""data"":{""x"":1001,""y"":561,""timestamp"":90534},""timestamp"":90534},{""type"":""chart_hover"",""data"":{""x"":1005,""y"":560,""timestamp"":90539.5},""timestamp"":90539.5},{""type"":""chart_hover"",""data"":{""x"":1008,""y"":558,""timestamp"":90545},""timestamp"":90545},{""type"":""chart_hover"",""data"":{""x"":1011,""y"":556,""timestamp"":90552.69999998808},""timestamp"":90552.69999998808},{""type"":""chart_hover"",""data"":{""x"":1016,""y"":555,""timestamp"":90560.80000001192},""timestamp"":90560.80000001192},{""type"":""chart_hover"",""data"":{""x"":1020,""y"":553,""timestamp"":90573.10000002384},""timestamp"":90573.10000002384},{""type"":""chart_hover"",""data"":{""x"":1025,""y"":551,""timestamp"":90579.39999997616},""timestamp"":90579.39999997616},{""type"":""chart_hover"",""data"":{""x"":1031,""y"":549,""timestamp"":90584.69999998808},""timestamp"":90584.69999998808},{""type"":""chart_hover"",""data"":{""x"":1036,""y"":547,""timestamp"":90592.80000001192},""timestamp"":90592.80000001192},{""type"":""chart_hover"",""data"":{""x"":1041,""y"":545,""timestamp"":90606.19999998808},""timestamp"":90606.19999998808},{""type"":""chart_hover"",""data"":{""x"":1047,""y"":543,""timestamp"":90611.80000001192},""timestamp"":90611.80000001192},{""type"":""chart_hover"",""data"":{""x"":1052,""y"":542,""timestamp"":90617.30000001192},""timestamp"":90617.30000001192},{""type"":""chart_hover"",""data"":{""x"":1057,""y"":541,""timestamp"":90624.60000002384},""timestamp"":90624.60000002384},{""type"":""chart_hover"",""data"":{""x"":1063,""y"":539,""timestamp"":90632.69999998808},""timestamp"":90632.69999998808},{""type"":""chart_hover"",""data"":{""x"":1068,""y"":537,""timestamp"":90645.30000001192},""timestamp"":90645.30000001192},{""type"":""chart_hover"",""data"":{""x"":1074,""y"":535,""timestamp"":90650.60000002384},""timestamp"":90650.60000002384},{""type"":""chart_hover"",""data"":{""x"":1080,""y"":534,""timestamp"":90657.10000002384},""timestamp"":90657.10000002384},{""type"":""chart_hover"",""data"":{""x"":1084,""y"":533,""timestamp"":90664.69999998808},""timestamp"":90664.69999998808},{""type"":""chart_hover"",""data"":{""x"":1088,""y"":532,""timestamp"":90672.89999997616},""timestamp"":90672.89999997616},{""type"":""chart_hover"",""data"":{""x"":1091,""y"":531,""timestamp"":90680.5},""timestamp"":90680.5},{""type"":""chart_hover"",""data"":{""x"":1094,""y"":531,""timestamp"":90688.80000001192},""timestamp"":90688.80000001192},{""type"":""chart_hover"",""data"":{""x"":1096,""y"":530,""timestamp"":90700.60000002384},""timestamp"":90700.60000002384},{""type"":""chart_hover"",""data"":{""x"":1098,""y"":529,""timestamp"":90706.30000001192},""timestamp"":90706.30000001192},{""type"":""chart_hover"",""data"":{""x"":1100,""y"":529,""timestamp"":90712.69999998808},""timestamp"":90712.69999998808},{""type"":""chart_hover"",""data"":{""x"":1102,""y"":529,""timestamp"":90721.30000001192},""timestamp"":90721.30000001192},{""type"":""chart_hover"",""data"":{""x"":1104,""y"":528,""timestamp"":90734.10000002384},""timestamp"":90734.10000002384},{""type"":""chart_hover"",""data"":{""x"":1106,""y"":528,""timestamp"":90739.60000002384},""timestamp"":90739.60000002384},{""type"":""chart_hover"",""data"":{""x"":1107,""y"":528,""timestamp"":90745.10000002384},""timestamp"":90745.10000002384},{""type"":""chart_hover"",""data"":{""x"":1109,""y"":527,""timestamp"":90752.69999998808},""timestamp"":90752.69999998808},{""type"":""chart_hover"",""data"":{""x"":1110,""y"":527,""timestamp"":90760.69999998808},""timestamp"":90760.69999998808},{""type"":""chart_hover"",""data"":{""x"":1111,""y"":526,""timestamp"":90772.89999997616},""timestamp"":90772.89999997616},{""type"":""chart_hover"",""data"":{""x"":1112,""y"":526,""timestamp"":90778.5},""timestamp"":90778.5},{""type"":""chart_hover"",""data"":{""x"":1114,""y"":526,""timestamp"":90784.80000001192},""timestamp"":90784.80000001192},{""type"":""chart_hover"",""data"":{""x"":1115,""y"":526,""timestamp"":90792.80000001192},""timestamp"":90792.80000001192},{""type"":""chart_hover"",""data"":{""x"":1116,""y"":526,""timestamp"":90806.30000001192},""timestamp"":90806.30000001192},{""type"":""chart_hover"",""data"":{""x"":1118,""y"":526,""timestamp"":90811.80000001192},""timestamp"":90811.80000001192},{""type"":""chart_hover"",""data"":{""x"":1120,""y"":526,""timestamp"":90817.30000001192},""timestamp"":90817.30000001192},{""type"":""chart_hover"",""data"":{""x"":1121,""y"":526,""timestamp"":90824.89999997616},""timestamp"":90824.89999997616},{""type"":""chart_hover"",""data"":{""x"":1122,""y"":526,""timestamp"":90832.89999997616},""timestamp"":90832.89999997616},{""type"":""chart_hover"",""data"":{""x"":1124,""y"":526,""timestamp"":90845.19999998808},""timestamp"":90845.19999998808},{""type"":""chart_hover"",""data"":{""x"":1125,""y"":526,""timestamp"":90850.60000002384},""timestamp"":90850.60000002384},{""type"":""chart_hover"",""data"":{""x"":1126,""y"":526,""timestamp"":90857.30000001192},""timestamp"":90857.30000001192},{""type"":""chart_hover"",""data"":{""x"":1127,""y"":526,""timestamp"":90864.80000001192},""timestamp"":90864.80000001192},{""type"":""chart_hover"",""data"":{""x"":1129,""y"":526,""timestamp"":90872.89999997616},""timestamp"":90872.89999997616},{""type"":""chart_hover"",""data"":{""x"":1130,""y"":526,""timestamp"":90880.60000002384},""timestamp"":90880.60000002384},{""type"":""chart_hover"",""data"":{""x"":1131,""y"":526,""timestamp"":90897},""timestamp"":90897},{""type"":""chart_hover"",""data"":{""x"":1132,""y"":526,""timestamp"":90904.80000001192},""timestamp"":90904.80000001192},{""type"":""chart_hover"",""data"":{""x"":1131,""y"":526,""timestamp"":91418.30000001192},""timestamp"":91418.30000001192},{""type"":""chart_hover"",""data"":{""x"":1129,""y"":524,""timestamp"":91424.80000001192},""timestamp"":91424.80000001192},{""type"":""chart_hover"",""data"":{""x"":1125,""y"":522,""timestamp"":91432.89999997616},""timestamp"":91432.89999997616},{""type"":""chart_hover"",""data"":{""x"":1119,""y"":518,""timestamp"":91445.19999998808},""timestamp"":91445.19999998808},{""type"":""chart_hover"",""data"":{""x"":1112,""y"":514,""timestamp"":91450.60000002384},""timestamp"":91450.60000002384},{""type"":""chart_hover"",""data"":{""x"":1103,""y"":510,""timestamp"":91457.19999998808},""timestamp"":91457.19999998808},{""type"":""chart_hover"",""data"":{""x"":1092,""y"":504,""timestamp"":91464.89999997616},""timestamp"":91464.89999997616},{""type"":""chart_hover"",""data"":{""x"":1080,""y"":497,""timestamp"":91472.89999997616},""timestamp"":91472.89999997616},{""type"":""chart_hover"",""data"":{""x"":1064,""y"":489,""timestamp"":91480.39999997616},""timestamp"":91480.39999997616},{""type"":""chart_hover"",""data"":{""x"":1047,""y"":481,""timestamp"":91488.80000001192},""timestamp"":91488.80000001192},{""type"":""chart_hover"",""data"":{""x"":1026,""y"":472,""timestamp"":91500.89999997616},""timestamp"":91500.89999997616},{""type"":""chart_hover"",""data"":{""x"":1003,""y"":462,""timestamp"":91507.30000001192},""timestamp"":91507.30000001192},{""type"":""chart_hover"",""data"":{""x"":983,""y"":453,""timestamp"":91512.80000001192},""timestamp"":91512.80000001192},{""type"":""chart_hover"",""data"":{""x"":960,""y"":444,""timestamp"":91520.89999997616},""timestamp"":91520.89999997616},{""type"":""chart_hover"",""data"":{""x"":937,""y"":433,""timestamp"":91534},""timestamp"":91534},{""type"":""chart_hover"",""data"":{""x"":917,""y"":424,""timestamp"":91539.60000002384},""timestamp"":91539.60000002384},{""type"":""chart_hover"",""data"":{""x"":897,""y"":416,""timestamp"":91545.19999998808},""timestamp"":91545.19999998808},{""type"":""chart_hover"",""data"":{""x"":879,""y"":408,""timestamp"":91552.5},""timestamp"":91552.5},{""type"":""chart_hover"",""data"":{""x"":859,""y"":399,""timestamp"":91560.80000001192},""timestamp"":91560.80000001192},{""type"":""chart_hover"",""data"":{""x"":841,""y"":391,""timestamp"":91573.10000002384},""timestamp"":91573.10000002384},{""type"":""chart_hover"",""data"":{""x"":826,""y"":385,""timestamp"":91579.39999997616},""timestamp"":91579.39999997616},{""type"":""chart_hover"",""data"":{""x"":811,""y"":378,""timestamp"":91584.89999997616},""timestamp"":91584.89999997616},{""type"":""chart_hover"",""data"":{""x"":800,""y"":373,""timestamp"":91592.89999997616},""timestamp"":91592.89999997616},{""type"":""chart_hover"",""data"":{""x"":789,""y"":368,""timestamp"":91606.30000001192},""timestamp"":91606.30000001192},{""type"":""chart_hover"",""data"":{""x"":779,""y"":363,""timestamp"":91612.80000001192},""timestamp"":91612.80000001192},{""type"":""chart_hover"",""data"":{""x"":771,""y"":359,""timestamp"":91617.39999997616},""timestamp"":91617.39999997616},{""type"":""chart_hover"",""data"":{""x"":764,""y"":355,""timestamp"":91624.60000002384},""timestamp"":91624.60000002384},{""type"":""chart_hover"",""data"":{""x"":756,""y"":350,""timestamp"":91633.10000002384},""timestamp"":91633.10000002384},{""type"":""chart_hover"",""data"":{""x"":750,""y"":346,""timestamp"":91645.10000002384},""timestamp"":91645.10000002384},{""type"":""chart_hover"",""data"":{""x"":745,""y"":343,""timestamp"":91650.69999998808},""timestamp"":91650.69999998808},{""type"":""chart_hover"",""data"":{""x"":741,""y"":339,""timestamp"":91657.39999997616},""timestamp"":91657.39999997616},{""type"":""chart_hover"",""data"":{""x"":737,""y"":335,""timestamp"":91664.80000001192},""timestamp"":91664.80000001192},{""type"":""chart_hover"",""data"":{""x"":735,""y"":333,""timestamp"":91672.89999997616},""timestamp"":91672.89999997616},{""type"":""chart_hover"",""data"":{""x"":732,""y"":329,""timestamp"":91680.69999998808},""timestamp"":91680.69999998808},{""type"":""chart_hover"",""data"":{""x"":730,""y"":326,""timestamp"":91688.80000001192},""timestamp"":91688.80000001192},{""type"":""chart_hover"",""data"":{""x"":727,""y"":322,""timestamp"":91700.69999998808},""timestamp"":91700.69999998808},{""type"":""chart_hover"",""data"":{""x"":723,""y"":320,""timestamp"":91706.19999998808},""timestamp"":91706.19999998808},{""type"":""chart_hover"",""data"":{""x"":721,""y"":317,""timestamp"":91712.80000001192},""timestamp"":91712.80000001192},{""type"":""chart_hover"",""data"":{""x"":719,""y"":315,""timestamp"":91720.89999997616},""timestamp"":91720.89999997616},{""type"":""chart_hover"",""data"":{""x"":717,""y"":313,""timestamp"":91734},""timestamp"":91734},{""type"":""chart_hover"",""data"":{""x"":717,""y"":311,""timestamp"":91739.60000002384},""timestamp"":91739.60000002384},{""type"":""chart_hover"",""data"":{""x"":716,""y"":309,""timestamp"":91745.19999998808},""timestamp"":91745.19999998808},{""type"":""chart_hover"",""data"":{""x"":715,""y"":309,""timestamp"":91752.60000002384},""timestamp"":91752.60000002384},{""type"":""chart_hover"",""data"":{""x"":715,""y"":308,""timestamp"":91760.80000001192},""timestamp"":91760.80000001192},{""type"":""chart_hover"",""data"":{""x"":715,""y"":307,""timestamp"":91772.89999997616},""timestamp"":91772.89999997616},{""type"":""chart_hover"",""data"":{""x"":715,""y"":306,""timestamp"":91778.39999997616},""timestamp"":91778.39999997616},{""type"":""chart_hover"",""data"":{""x"":715,""y"":305,""timestamp"":91784.80000001192},""timestamp"":91784.80000001192},{""type"":""chart_hover"",""data"":{""x"":715,""y"":304,""timestamp"":91792.89999997616},""timestamp"":91792.89999997616},{""type"":""chart_hover"",""data"":{""x"":716,""y"":302,""timestamp"":91806.30000001192},""timestamp"":91806.30000001192},{""type"":""chart_hover"",""data"":{""x"":716,""y"":301,""timestamp"":91811.89999997616},""timestamp"":91811.89999997616},{""type"":""chart_hover"",""data"":{""x"":718,""y"":300,""timestamp"":91817.39999997616},""timestamp"":91817.39999997616},{""type"":""chart_hover"",""data"":{""x"":719,""y"":299,""timestamp"":91824.69999998808},""timestamp"":91824.69999998808},{""type"":""chart_hover"",""data"":{""x"":721,""y"":298,""timestamp"":91833},""timestamp"":91833},{""type"":""chart_hover"",""data"":{""x"":722,""y"":296,""timestamp"":91845.19999998808},""timestamp"":91845.19999998808},{""type"":""chart_hover"",""data"":{""x"":723,""y"":295,""timestamp"":91850.69999998808},""timestamp"":91850.69999998808},{""type"":""chart_hover"",""data"":{""x"":725,""y"":293,""timestamp"":91857.30000001192},""timestamp"":91857.30000001192},{""type"":""chart_hover"",""data"":{""x"":726,""y"":292,""timestamp"":91864.69999998808},""timestamp"":91864.69999998808},{""type"":""chart_hover"",""data"":{""x"":728,""y"":290,""timestamp"":91878.60000002384},""timestamp"":91878.60000002384},{""type"":""chart_hover"",""data"":{""x"":730,""y"":290,""timestamp"":91884},""timestamp"":91884},{""type"":""chart_hover"",""data"":{""x"":731,""y"":289,""timestamp"":91889.60000002384},""timestamp"":91889.60000002384},{""type"":""chart_hover"",""data"":{""x"":733,""y"":288,""timestamp"":91896.69999998808},""timestamp"":91896.69999998808},{""type"":""chart_hover"",""data"":{""x"":734,""y"":288,""timestamp"":91904.89999997616},""timestamp"":91904.89999997616},{""type"":""chart_hover"",""data"":{""x"":736,""y"":287,""timestamp"":91917.60000002384},""timestamp"":91917.60000002384},{""type"":""chart_hover"",""data"":{""x"":738,""y"":286,""timestamp"":91923},""timestamp"":91923},{""type"":""chart_hover"",""data"":{""x"":741,""y"":286,""timestamp"":91929.30000001192},""timestamp"":91929.30000001192},{""type"":""chart_hover"",""data"":{""x"":743,""y"":285,""timestamp"":91936.60000002384},""timestamp"":91936.60000002384},{""type"":""chart_hover"",""data"":{""x"":746,""y"":285,""timestamp"":91950.80000001192},""timestamp"":91950.80000001192},{""type"":""chart_hover"",""data"":{""x"":749,""y"":285,""timestamp"":91956.19999998808},""timestamp"":91956.19999998808},{""type"":""chart_hover"",""data"":{""x"":752,""y"":285,""timestamp"":91961.80000001192},""timestamp"":91961.80000001192},{""type"":""chart_hover"",""data"":{""x"":755,""y"":284,""timestamp"":91968.60000002384},""timestamp"":91968.60000002384},{""type"":""chart_hover"",""data"":{""x"":758,""y"":284,""timestamp"":91976.80000001192},""timestamp"":91976.80000001192},{""type"":""chart_hover"",""data"":{""x"":760,""y"":284,""timestamp"":91989.69999998808},""timestamp"":91989.69999998808},{""type"":""chart_hover"",""data"":{""x"":763,""y"":283,""timestamp"":91995.30000001192},""timestamp"":91995.30000001192},{""type"":""chart_hover"",""data"":{""x"":765,""y"":283,""timestamp"":92001.19999998808},""timestamp"":92001.19999998808},{""type"":""chart_hover"",""data"":{""x"":767,""y"":283,""timestamp"":92008.69999998808},""timestamp"":92008.69999998808},{""type"":""chart_hover"",""data"":{""x"":769,""y"":283,""timestamp"":92023.10000002384},""timestamp"":92023.10000002384},{""type"":""chart_hover"",""data"":{""x"":772,""y"":283,""timestamp"":92028.5},""timestamp"":92028.5},{""type"":""chart_hover"",""data"":{""x"":773,""y"":283,""timestamp"":92034},""timestamp"":92034},{""type"":""chart_hover"",""data"":{""x"":774,""y"":283,""timestamp"":92040.69999998808},""timestamp"":92040.69999998808},{""type"":""chart_hover"",""data"":{""x"":776,""y"":283,""timestamp"":92048.89999997616},""timestamp"":92048.89999997616},{""type"":""chart_hover"",""data"":{""x"":778,""y"":283,""timestamp"":92061.80000001192},""timestamp"":92061.80000001192},{""type"":""chart_hover"",""data"":{""x"":781,""y"":283,""timestamp"":92067.5},""timestamp"":92067.5},{""type"":""chart_hover"",""data"":{""x"":783,""y"":283,""timestamp"":92073},""timestamp"":92073},{""type"":""chart_hover"",""data"":{""x"":785,""y"":283,""timestamp"":92080.60000002384},""timestamp"":92080.60000002384},{""type"":""chart_hover"",""data"":{""x"":787,""y"":283,""timestamp"":92088.89999997616},""timestamp"":92088.89999997616},{""type"":""chart_hover"",""data"":{""x"":788,""y"":283,""timestamp"":92100.89999997616},""timestamp"":92100.89999997616},{""type"":""chart_hover"",""data"":{""x"":790,""y"":283,""timestamp"":92107.30000001192},""timestamp"":92107.30000001192},{""type"":""chart_hover"",""data"":{""x"":791,""y"":283,""timestamp"":92113},""timestamp"":92113},{""type"":""chart_hover"",""data"":{""x"":792,""y"":283,""timestamp"":92129.60000002384},""timestamp"":92129.60000002384},{""type"":""chart_hover"",""data"":{""x"":793,""y"":283,""timestamp"":92136.80000001192},""timestamp"":92136.80000001192},{""type"":""chart_hover"",""data"":{""x"":794,""y"":283,""timestamp"":92153},""timestamp"":92153},{""type"":""chart_hover"",""data"":{""x"":795,""y"":283,""timestamp"":94650.19999998808},""timestamp"":94650.19999998808},{""type"":""chart_hover"",""data"":{""x"":796,""y"":283,""timestamp"":94667.5},""timestamp"":94667.5},{""type"":""chart_hover"",""data"":{""x"":797,""y"":283,""timestamp"":94684.10000002384},""timestamp"":94684.10000002384},{""type"":""chart_hover"",""data"":{""x"":798,""y"":283,""timestamp"":94689.69999998808},""timestamp"":94689.69999998808},{""type"":""chart_hover"",""data"":{""x"":799,""y"":283,""timestamp"":94696.69999998808},""timestamp"":94696.69999998808},{""type"":""chart_hover"",""data"":{""x"":800,""y"":283,""timestamp"":94704.89999997616},""timestamp"":94704.89999997616},{""type"":""chart_hover"",""data"":{""x"":802,""y"":283,""timestamp"":94717.60000002384},""timestamp"":94717.60000002384},{""type"":""chart_hover"",""data"":{""x"":805,""y"":282,""timestamp"":94723.19999998808},""timestamp"":94723.19999998808},{""type"":""chart_hover"",""data"":{""x"":808,""y"":282,""timestamp"":94729.5},""timestamp"":94729.5},{""type"":""chart_hover"",""data"":{""x"":812,""y"":281,""timestamp"":94736.89999997616},""timestamp"":94736.89999997616},{""type"":""chart_hover"",""data"":{""x"":816,""y"":281,""timestamp"":94744.89999997616},""timestamp"":94744.89999997616},{""type"":""chart_hover"",""data"":{""x"":820,""y"":281,""timestamp"":94756.30000001192},""timestamp"":94756.30000001192},{""type"":""chart_hover"",""data"":{""x"":824,""y"":281,""timestamp"":94761.80000001192},""timestamp"":94761.80000001192},{""type"":""chart_hover"",""data"":{""x"":829,""y"":280,""timestamp"":94768.69999998808},""timestamp"":94768.69999998808},{""type"":""chart_hover"",""data"":{""x"":833,""y"":280,""timestamp"":94776.89999997616},""timestamp"":94776.89999997616},{""type"":""chart_hover"",""data"":{""x"":836,""y"":280,""timestamp"":94789.60000002384},""timestamp"":94789.60000002384},{""type"":""chart_hover"",""data"":{""x"":839,""y"":280,""timestamp"":94795.30000001192},""timestamp"":94795.30000001192},{""type"":""chart_hover"",""data"":{""x"":842,""y"":280,""timestamp"":94801.19999998808},""timestamp"":94801.19999998808},{""type"":""chart_hover"",""data"":{""x"":845,""y"":280,""timestamp"":94808.60000002384},""timestamp"":94808.60000002384},{""type"":""chart_hover"",""data"":{""x"":848,""y"":280,""timestamp"":94816.80000001192},""timestamp"":94816.80000001192},{""type"":""chart_hover"",""data"":{""x"":850,""y"":280,""timestamp"":94828.60000002384},""timestamp"":94828.60000002384},{""type"":""chart_hover"",""data"":{""x"":853,""y"":280,""timestamp"":94834},""timestamp"":94834},{""type"":""chart_hover"",""data"":{""x"":855,""y"":280,""timestamp"":94840.89999997616},""timestamp"":94840.89999997616},{""type"":""chart_hover"",""data"":{""x"":857,""y"":280,""timestamp"":94848.80000001192},""timestamp"":94848.80000001192},{""type"":""chart_hover"",""data"":{""x"":859,""y"":280,""timestamp"":94861.89999997616},""timestamp"":94861.89999997616},{""type"":""chart_hover"",""data"":{""x"":861,""y"":280,""timestamp"":94867.39999997616},""timestamp"":94867.39999997616},{""type"":""chart_hover"",""data"":{""x"":863,""y"":280,""timestamp"":94873.10000002384},""timestamp"":94873.10000002384},{""type"":""chart_hover"",""data"":{""x"":866,""y"":280,""timestamp"":94880.60000002384},""timestamp"":94880.60000002384},{""type"":""chart_hover"",""data"":{""x"":869,""y"":280,""timestamp"":94888.89999997616},""timestamp"":94888.89999997616},{""type"":""chart_hover"",""data"":{""x"":872,""y"":280,""timestamp"":94900.80000001192},""timestamp"":94900.80000001192},{""type"":""chart_hover"",""data"":{""x"":875,""y"":280,""timestamp"":94906.19999998808},""timestamp"":94906.19999998808},{""type"":""chart_hover"",""data"":{""x"":878,""y"":280,""timestamp"":94912.89999997616},""timestamp"":94912.89999997616},{""type"":""chart_hover"",""data"":{""x"":881,""y"":280,""timestamp"":94920.89999997616},""timestamp"":94920.89999997616},{""type"":""chart_hover"",""data"":{""x"":883,""y"":280,""timestamp"":94934.5},""timestamp"":94934.5},{""type"":""chart_hover"",""data"":{""x"":885,""y"":280,""timestamp"":94940.69999998808},""timestamp"":94940.69999998808},{""type"":""chart_hover"",""data"":{""x"":886,""y"":280,""timestamp"":94945.30000001192},""timestamp"":94945.30000001192},{""type"":""chart_hover"",""data"":{""x"":888,""y"":280,""timestamp"":94952.60000002384},""timestamp"":94952.60000002384},{""type"":""chart_hover"",""data"":{""x"":889,""y"":280,""timestamp"":94960.89999997616},""timestamp"":94960.89999997616},{""type"":""chart_hover"",""data"":{""x"":891,""y"":280,""timestamp"":94977.39999997616},""timestamp"":94977.39999997616},{""type"":""chart_hover"",""data"":{""x"":892,""y"":280,""timestamp"":94993.39999997616},""timestamp"":94993.39999997616},{""type"":""chart_hover"",""data"":{""x"":893,""y"":280,""timestamp"":95010},""timestamp"":95010},{""type"":""chart_hover"",""data"":{""x"":894,""y"":280,""timestamp"":95016.89999997616},""timestamp"":95016.89999997616},{""type"":""chart_hover"",""data"":{""x"":895,""y"":281,""timestamp"":95028.60000002384},""timestamp"":95028.60000002384},{""type"":""chart_hover"",""data"":{""x"":896,""y"":281,""timestamp"":95034},""timestamp"":95034},{""type"":""chart_hover"",""data"":{""x"":897,""y"":281,""timestamp"":95040.80000001192},""timestamp"":95040.80000001192},{""type"":""chart_hover"",""data"":{""x"":899,""y"":281,""timestamp"":95048.89999997616},""timestamp"":95048.89999997616},{""type"":""chart_hover"",""data"":{""x"":900,""y"":281,""timestamp"":95062.10000002384},""timestamp"":95062.10000002384},{""type"":""chart_hover"",""data"":{""x"":901,""y"":281,""timestamp"":95067.5},""timestamp"":95067.5},{""type"":""chart_hover"",""data"":{""x"":902,""y"":282,""timestamp"":95073},""timestamp"":95073},{""type"":""chart_hover"",""data"":{""x"":904,""y"":282,""timestamp"":95080.60000002384},""timestamp"":95080.60000002384},{""type"":""chart_hover"",""data"":{""x"":905,""y"":282,""timestamp"":95088.89999997616},""timestamp"":95088.89999997616},{""type"":""chart_hover"",""data"":{""x"":906,""y"":282,""timestamp"":95101},""timestamp"":95101},{""type"":""chart_hover"",""data"":{""x"":908,""y"":282,""timestamp"":95107.30000001192},""timestamp"":95107.30000001192},{""type"":""chart_hover"",""data"":{""x"":909,""y"":282,""timestamp"":95112.69999998808},""timestamp"":95112.69999998808},{""type"":""chart_hover"",""data"":{""x"":910,""y"":282,""timestamp"":95129.69999998808},""timestamp"":95129.69999998808},{""type"":""chart_hover"",""data"":{""x"":911,""y"":282,""timestamp"":95145.60000002384},""timestamp"":95145.60000002384},{""type"":""chart_hover"",""data"":{""x"":912,""y"":283,""timestamp"":95169.39999997616},""timestamp"":95169.39999997616},{""type"":""chart_hover"",""data"":{""x"":913,""y"":283,""timestamp"":95186.69999998808},""timestamp"":95186.69999998808},{""type"":""chart_hover"",""data"":{""x"":914,""y"":283,""timestamp"":95192.80000001192},""timestamp"":95192.80000001192},{""type"":""chart_hover"",""data"":{""x"":915,""y"":283,""timestamp"":95206.39999997616},""timestamp"":95206.39999997616},{""type"":""chart_hover"",""data"":{""x"":917,""y"":283,""timestamp"":95211.89999997616},""timestamp"":95211.89999997616},{""type"":""chart_hover"",""data"":{""x"":918,""y"":283,""timestamp"":95217.39999997616},""timestamp"":95217.39999997616},{""type"":""chart_hover"",""data"":{""x"":919,""y"":284,""timestamp"":95224.60000002384},""timestamp"":95224.60000002384},{""type"":""chart_hover"",""data"":{""x"":921,""y"":284,""timestamp"":95232.89999997616},""timestamp"":95232.89999997616},{""type"":""chart_hover"",""data"":{""x"":922,""y"":285,""timestamp"":95245.30000001192},""timestamp"":95245.30000001192},{""type"":""chart_hover"",""data"":{""x"":923,""y"":285,""timestamp"":95250.89999997616},""timestamp"":95250.89999997616},{""type"":""chart_hover"",""data"":{""x"":924,""y"":285,""timestamp"":95257.19999998808},""timestamp"":95257.19999998808},{""type"":""chart_hover"",""data"":{""x"":925,""y"":285,""timestamp"":95265},""timestamp"":95265},{""type"":""chart_hover"",""data"":{""x"":926,""y"":286,""timestamp"":95273.10000002384},""timestamp"":95273.10000002384},{""type"":""chart_hover"",""data"":{""x"":927,""y"":286,""timestamp"":95280.80000001192},""timestamp"":95280.80000001192},{""type"":""chart_hover"",""data"":{""x"":928,""y"":286,""timestamp"":95289.10000002384},""timestamp"":95289.10000002384},{""type"":""chart_hover"",""data"":{""x"":929,""y"":286,""timestamp"":95300.80000001192},""timestamp"":95300.80000001192},{""type"":""chart_hover"",""data"":{""x"":930,""y"":286,""timestamp"":95306.30000001192},""timestamp"":95306.30000001192},{""type"":""chart_hover"",""data"":{""x"":931,""y"":286,""timestamp"":95312.89999997616},""timestamp"":95312.89999997616},{""type"":""chart_hover"",""data"":{""x"":932,""y"":286,""timestamp"":95320.89999997616},""timestamp"":95320.89999997616},{""type"":""chart_hover"",""data"":{""x"":933,""y"":286,""timestamp"":95334.19999998808},""timestamp"":95334.19999998808},{""type"":""chart_hover"",""data"":{""x"":934,""y"":286,""timestamp"":95339.69999998808},""timestamp"":95339.69999998808},{""type"":""chart_hover"",""data"":{""x"":936,""y"":287,""timestamp"":95345.19999998808},""timestamp"":95345.19999998808},{""type"":""chart_hover"",""data"":{""x"":937,""y"":287,""timestamp"":95352.89999997616},""timestamp"":95352.89999997616},{""type"":""chart_hover"",""data"":{""x"":938,""y"":287,""timestamp"":95361.10000002384},""timestamp"":95361.10000002384},{""type"":""chart_hover"",""data"":{""x"":939,""y"":287,""timestamp"":95373.10000002384},""timestamp"":95373.10000002384},{""type"":""chart_hover"",""data"":{""x"":940,""y"":287,""timestamp"":95389.69999998808},""timestamp"":95389.69999998808},{""type"":""chart_hover"",""data"":{""x"":941,""y"":287,""timestamp"":95395.30000001192},""timestamp"":95395.30000001192},{""type"":""chart_hover"",""data"":{""x"":942,""y"":287,""timestamp"":95411.89999997616},""timestamp"":95411.89999997616},{""type"":""chart_hover"",""data"":{""x"":943,""y"":287,""timestamp"":95428.60000002384},""timestamp"":95428.60000002384},{""type"":""chart_hover"",""data"":{""x"":944,""y"":287,""timestamp"":95449.5},""timestamp"":95449.5},{""type"":""chart_hover"",""data"":{""x"":944,""y"":288,""timestamp"":95462},""timestamp"":95462},{""type"":""chart_hover"",""data"":{""x"":946,""y"":288,""timestamp"":95467.5},""timestamp"":95467.5},{""type"":""chart_hover"",""data"":{""x"":947,""y"":288,""timestamp"":95473},""timestamp"":95473},{""type"":""chart_hover"",""data"":{""x"":948,""y"":288,""timestamp"":95480.89999997616},""timestamp"":95480.89999997616},{""type"":""chart_hover"",""data"":{""x"":949,""y"":289,""timestamp"":95497.19999998808},""timestamp"":95497.19999998808},{""type"":""chart_hover"",""data"":{""x"":950,""y"":289,""timestamp"":95513.39999997616},""timestamp"":95513.39999997616},{""type"":""chart_hover"",""data"":{""x"":951,""y"":289,""timestamp"":95538.60000002384},""timestamp"":95538.60000002384},{""type"":""chart_hover"",""data"":{""x"":952,""y"":289,""timestamp"":95553.30000001192},""timestamp"":95553.30000001192},{""type"":""chart_hover"",""data"":{""x"":953,""y"":289,""timestamp"":95577.5},""timestamp"":95577.5},{""type"":""chart_hover"",""data"":{""x"":954,""y"":289,""timestamp"":95594.19999998808},""timestamp"":95594.19999998808},{""type"":""chart_hover"",""data"":{""x"":955,""y"":290,""timestamp"":95606.60000002384},""timestamp"":95606.60000002384},{""type"":""chart_hover"",""data"":{""x"":956,""y"":290,""timestamp"":95611.89999997616},""timestamp"":95611.89999997616},{""type"":""chart_hover"",""data"":{""x"":957,""y"":290,""timestamp"":95633.30000001192},""timestamp"":95633.30000001192},{""type"":""chart_hover"",""data"":{""x"":958,""y"":290,""timestamp"":96554.60000002384},""timestamp"":96554.60000002384},{""type"":""chart_hover"",""data"":{""x"":959,""y"":290,""timestamp"":97434.60000002384},""timestamp"":97434.60000002384},{""type"":""chart_hover"",""data"":{""x"":960,""y"":290,""timestamp"":97440.80000001192},""timestamp"":97440.80000001192},{""type"":""chart_hover"",""data"":{""x"":961,""y"":290,""timestamp"":97457.69999998808},""timestamp"":97457.69999998808},{""type"":""chart_hover"",""data"":{""x"":962,""y"":289,""timestamp"":97473.60000002384},""timestamp"":97473.60000002384},{""type"":""chart_hover"",""data"":{""x"":963,""y"":289,""timestamp"":97490.80000001192},""timestamp"":97490.80000001192},{""type"":""chart_hover"",""data"":{""x"":964,""y"":289,""timestamp"":97496.89999997616},""timestamp"":97496.89999997616},{""type"":""chart_hover"",""data"":{""x"":964,""y"":288,""timestamp"":97504.89999997616},""timestamp"":97504.89999997616},{""type"":""chart_hover"",""data"":{""x"":965,""y"":288,""timestamp"":97546.30000001192},""timestamp"":97546.30000001192},{""type"":""chart_hover"",""data"":{""x"":966,""y"":288,""timestamp"":97586.69999998808},""timestamp"":97586.69999998808},{""type"":""chart_hover"",""data"":{""x"":967,""y"":288,""timestamp"":97674.39999997616},""timestamp"":97674.39999997616},{""type"":""chart_hover"",""data"":{""x"":968,""y"":288,""timestamp"":97690.39999997616},""timestamp"":97690.39999997616},{""type"":""chart_hover"",""data"":{""x"":969,""y"":288,""timestamp"":97722.5},""timestamp"":97722.5},{""type"":""chart_hover"",""data"":{""x"":970,""y"":288,""timestamp"":97753.5},""timestamp"":97753.5},{""type"":""chart_hover"",""data"":{""x"":971,""y"":288,""timestamp"":97769.30000001192},""timestamp"":97769.30000001192},{""type"":""chart_hover"",""data"":{""x"":972,""y"":288,""timestamp"":97785.60000002384},""timestamp"":97785.60000002384},{""type"":""chart_hover"",""data"":{""x"":973,""y"":288,""timestamp"":97809.80000001192},""timestamp"":97809.80000001192},{""type"":""chart_hover"",""data"":{""x"":974,""y"":288,""timestamp"":97897.80000001192},""timestamp"":97897.80000001192},{""type"":""chart_hover"",""data"":{""x"":974,""y"":289,""timestamp"":97905.10000002384},""timestamp"":97905.10000002384},{""type"":""chart_hover"",""data"":{""x"":975,""y"":289,""timestamp"":98378.39999997616},""timestamp"":98378.39999997616},{""type"":""chart_hover"",""data"":{""x"":976,""y"":289,""timestamp"":98563},""timestamp"":98563},{""type"":""chart_hover"",""data"":{""x"":976,""y"":288,""timestamp"":98568.89999997616},""timestamp"":98568.89999997616},{""type"":""chart_hover"",""data"":{""x"":977,""y"":288,""timestamp"":98602.60000002384},""timestamp"":98602.60000002384},{""type"":""chart_hover"",""data"":{""x"":978,""y"":288,""timestamp"":98634.5},""timestamp"":98634.5},{""type"":""chart_hover"",""data"":{""x"":978,""y"":287,""timestamp"":98658.89999997616},""timestamp"":98658.89999997616},{""type"":""chart_hover"",""data"":{""x"":979,""y"":287,""timestamp"":98673.69999998808},""timestamp"":98673.69999998808},{""type"":""chart_hover"",""data"":{""x"":980,""y"":287,""timestamp"":98730.89999997616},""timestamp"":98731},{""type"":""chart_hover"",""data"":{""x"":981,""y"":287,""timestamp"":98770.10000002384},""timestamp"":98770.10000002384},{""type"":""chart_hover"",""data"":{""x"":982,""y"":287,""timestamp"":98866.30000001192},""timestamp"":98866.30000001192},{""type"":""chart_hover"",""data"":{""x"":983,""y"":287,""timestamp"":98914.60000002384},""timestamp"":98914.60000002384},{""type"":""chart_hover"",""data"":{""x"":984,""y"":287,""timestamp"":98954.80000001192},""timestamp"":98954.80000001192},{""type"":""chart_hover"",""data"":{""x"":985,""y"":287,""timestamp"":98961.69999998808},""timestamp"":98961.69999998808},{""type"":""chart_hover"",""data"":{""x"":986,""y"":287,""timestamp"":99002.5},""timestamp"":99002.5},{""type"":""chart_hover"",""data"":{""x"":987,""y"":287,""timestamp"":99066.39999997616},""timestamp"":99066.39999997616},{""type"":""chart_hover"",""data"":{""x"":988,""y"":287,""timestamp"":99091.10000002384},""timestamp"":99091.10000002384},{""type"":""chart_hover"",""data"":{""x"":989,""y"":287,""timestamp"":99096.89999997616},""timestamp"":99096.89999997616},{""type"":""chart_hover"",""data"":{""x"":990,""y"":287,""timestamp"":99122.30000001192},""timestamp"":99122.30000001192},{""type"":""chart_hover"",""data"":{""x"":991,""y"":287,""timestamp"":99330.69999998808},""timestamp"":99330.69999998808},{""type"":""chart_hover"",""data"":{""x"":992,""y"":287,""timestamp"":99354.30000001192},""timestamp"":99354.30000001192},{""type"":""chart_hover"",""data"":{""x"":993,""y"":287,""timestamp"":99361},""timestamp"":99361},{""type"":""chart_hover"",""data"":{""x"":994,""y"":287,""timestamp"":99385.60000002384},""timestamp"":99385.60000002384},{""type"":""chart_hover"",""data"":{""x"":995,""y"":287,""timestamp"":99401.60000002384},""timestamp"":99401.60000002384},{""type"":""chart_hover"",""data"":{""x"":996,""y"":287,""timestamp"":99426},""timestamp"":99426},{""type"":""chart_hover"",""data"":{""x"":997,""y"":287,""timestamp"":99433},""timestamp"":99433},{""type"":""chart_hover"",""data"":{""x"":998,""y"":287,""timestamp"":99458.5},""timestamp"":99458.5},{""type"":""chart_hover"",""data"":{""x"":999,""y"":287,""timestamp"":99522.69999998808},""timestamp"":99522.69999998808},{""type"":""chart_hover"",""data"":{""x"":1000,""y"":287,""timestamp"":99539.80000001192},""timestamp"":99539.80000001192},{""type"":""chart_hover"",""data"":{""x"":1001,""y"":287,""timestamp"":99556.5},""timestamp"":99556.5},{""type"":""chart_hover"",""data"":{""x"":1002,""y"":287,""timestamp"":99573.10000002384},""timestamp"":99573.10000002384},{""type"":""chart_hover"",""data"":{""x"":1003,""y"":287,""timestamp"":99593.39999997616},""timestamp"":99593.39999997616},{""type"":""chart_hover"",""data"":{""x"":1004,""y"":287,""timestamp"":99618.30000001192},""timestamp"":99618.30000001192},{""type"":""chart_hover"",""data"":{""x"":1005,""y"":287,""timestamp"":99625.10000002384},""timestamp"":99625.10000002384},{""type"":""chart_hover"",""data"":{""x"":1006,""y"":287,""timestamp"":99641.10000002384},""timestamp"":99641.10000002384},{""type"":""chart_hover"",""data"":{""x"":1008,""y"":287,""timestamp"":99649},""timestamp"":99649},{""type"":""chart_hover"",""data"":{""x"":1009,""y"":287,""timestamp"":99662},""timestamp"":99662},{""type"":""chart_hover"",""data"":{""x"":1010,""y"":288,""timestamp"":99667.60000002384},""timestamp"":99667.60000002384},{""type"":""chart_hover"",""data"":{""x"":1011,""y"":288,""timestamp"":99673.19999998808},""timestamp"":99673.19999998808},{""type"":""chart_hover"",""data"":{""x"":1013,""y"":288,""timestamp"":99680.89999997616},""timestamp"":99680.89999997616},{""type"":""chart_hover"",""data"":{""x"":1014,""y"":288,""timestamp"":99697.30000001192},""timestamp"":99697.30000001192},{""type"":""chart_hover"",""data"":{""x"":1015,""y"":288,""timestamp"":99705.10000002384},""timestamp"":99705.10000002384},{""type"":""chart_hover"",""data"":{""x"":1016,""y"":288,""timestamp"":99717.80000001192},""timestamp"":99717.80000001192},{""type"":""chart_hover"",""data"":{""x"":1017,""y"":288,""timestamp"":99734.30000001192},""timestamp"":99734.30000001192},{""type"":""chart_hover"",""data"":{""x"":1018,""y"":288,""timestamp"":99745.39999997616},""timestamp"":99745.39999997616},{""type"":""chart_hover"",""data"":{""x"":1019,""y"":288,""timestamp"":99752.80000001192},""timestamp"":99752.80000001192},{""type"":""chart_hover"",""data"":{""x"":1020,""y"":289,""timestamp"":99761.10000002384},""timestamp"":99761.10000002384},{""type"":""chart_hover"",""data"":{""x"":1021,""y"":289,""timestamp"":99777.39999997616},""timestamp"":99777.39999997616},{""type"":""chart_hover"",""data"":{""x"":1022,""y"":289,""timestamp"":99802.80000001192},""timestamp"":99802.80000001192},{""type"":""chart_hover"",""data"":{""x"":1023,""y"":289,""timestamp"":99826.30000001192},""timestamp"":99826.30000001192},{""type"":""chart_hover"",""data"":{""x"":1024,""y"":289,""timestamp"":99841.30000001192},""timestamp"":99841.30000001192},{""type"":""chart_hover"",""data"":{""x"":1025,""y"":289,""timestamp"":99866.10000002384},""timestamp"":99866.10000002384},{""type"":""chart_hover"",""data"":{""x"":1026,""y"":289,""timestamp"":99914.69999998808},""timestamp"":99914.69999998808},{""type"":""chart_hover"",""data"":{""x"":1027,""y"":289,""timestamp"":99921.10000002384},""timestamp"":99921.10000002384},{""type"":""chart_hover"",""data"":{""x"":1027,""y"":290,""timestamp"":99937.30000001192},""timestamp"":99937.30000001192},{""type"":""chart_hover"",""data"":{""x"":1028,""y"":290,""timestamp"":99945.10000002384},""timestamp"":99945.10000002384},{""type"":""chart_hover"",""data"":{""x"":1029,""y"":290,""timestamp"":99956.5},""timestamp"":99956.5},{""type"":""chart_hover"",""data"":{""x"":1030,""y"":290,""timestamp"":99962},""timestamp"":99962},{""type"":""chart_hover"",""data"":{""x"":1032,""y"":290,""timestamp"":99969},""timestamp"":99969},{""type"":""chart_hover"",""data"":{""x"":1033,""y"":290,""timestamp"":99977.10000002384},""timestamp"":99977.10000002384},{""type"":""chart_hover"",""data"":{""x"":1034,""y"":291,""timestamp"":99989.89999997616},""timestamp"":99989.89999997616},{""type"":""chart_hover"",""data"":{""x"":1035,""y"":291,""timestamp"":99995.39999997616},""timestamp"":99995.39999997616},{""type"":""chart_hover"",""data"":{""x"":1037,""y"":291,""timestamp"":100001.39999997616},""timestamp"":100001.39999997616},{""type"":""chart_hover"",""data"":{""x"":1038,""y"":291,""timestamp"":100008.89999997616},""timestamp"":100008.89999997616},{""type"":""chart_hover"",""data"":{""x"":1039,""y"":292,""timestamp"":100017.19999998808},""timestamp"":100017.19999998808},{""type"":""chart_hover"",""data"":{""x"":1040,""y"":292,""timestamp"":100028.80000001192},""timestamp"":100028.80000001192},{""type"":""chart_hover"",""data"":{""x"":1041,""y"":292,""timestamp"":100035.19999998808},""timestamp"":100035.19999998808},{""type"":""chart_hover"",""data"":{""x"":1042,""y"":292,""timestamp"":100041},""timestamp"":100041},{""type"":""chart_hover"",""data"":{""x"":1043,""y"":292,""timestamp"":100049.19999998808},""timestamp"":100049.19999998808},{""type"":""chart_hover"",""data"":{""x"":1044,""y"":292,""timestamp"":100062.19999998808},""timestamp"":100062.19999998808},{""type"":""chart_hover"",""data"":{""x"":1045,""y"":292,""timestamp"":100067.69999998808},""timestamp"":100067.69999998808},{""type"":""chart_hover"",""data"":{""x"":1046,""y"":292,""timestamp"":100073.19999998808},""timestamp"":100073.19999998808},{""type"":""chart_hover"",""data"":{""x"":1047,""y"":292,""timestamp"":100080.69999998808},""timestamp"":100080.69999998808},{""type"":""chart_hover"",""data"":{""x"":1049,""y"":293,""timestamp"":100089.30000001192},""timestamp"":100089.30000001192},{""type"":""chart_hover"",""data"":{""x"":1051,""y"":293,""timestamp"":100101},""timestamp"":100101},{""type"":""chart_hover"",""data"":{""x"":1053,""y"":293,""timestamp"":100106.39999997616},""timestamp"":100106.39999997616},{""type"":""chart_hover"",""data"":{""x"":1055,""y"":293,""timestamp"":100113.10000002384},""timestamp"":100113.10000002384},{""type"":""chart_hover"",""data"":{""x"":1057,""y"":293,""timestamp"":100121.39999997616},""timestamp"":100121.39999997616},{""type"":""chart_hover"",""data"":{""x"":1060,""y"":293,""timestamp"":100134.39999997616},""timestamp"":100134.39999997616},{""type"":""chart_hover"",""data"":{""x"":1062,""y"":293,""timestamp"":100139.80000001192},""timestamp"":100139.80000001192},{""type"":""chart_hover"",""data"":{""x"":1065,""y"":293,""timestamp"":100145.30000001192},""timestamp"":100145.30000001192},{""type"":""chart_hover"",""data"":{""x"":1068,""y"":293,""timestamp"":100152.89999997616},""timestamp"":100152.89999997616},{""type"":""chart_hover"",""data"":{""x"":1070,""y"":293,""timestamp"":100161.19999998808},""timestamp"":100161.19999998808},{""type"":""chart_hover"",""data"":{""x"":1073,""y"":293,""timestamp"":100173.19999998808},""timestamp"":100173.19999998808},{""type"":""chart_hover"",""data"":{""x"":1075,""y"":293,""timestamp"":100178.69999998808},""timestamp"":100178.69999998808},{""type"":""chart_hover"",""data"":{""x"":1078,""y"":293,""timestamp"":100185.19999998808},""timestamp"":100185.19999998808},{""type"":""chart_hover"",""data"":{""x"":1081,""y"":293,""timestamp"":100193.10000002384},""timestamp"":100193.10000002384},{""type"":""chart_hover"",""data"":{""x"":1083,""y"":293,""timestamp"":100206.5},""timestamp"":100206.5},{""type"":""chart_hover"",""data"":{""x"":1086,""y"":293,""timestamp"":100212.30000001192},""timestamp"":100212.30000001192},{""type"":""chart_hover"",""data"":{""x"":1088,""y"":293,""timestamp"":100217.60000002384},""timestamp"":100217.60000002384},{""type"":""chart_hover"",""data"":{""x"":1090,""y"":294,""timestamp"":100224.89999997616},""timestamp"":100224.89999997616},{""type"":""chart_hover"",""data"":{""x"":1092,""y"":294,""timestamp"":100233.10000002384},""timestamp"":100233.10000002384},{""type"":""chart_hover"",""data"":{""x"":1095,""y"":294,""timestamp"":100245.39999997616},""timestamp"":100245.39999997616},{""type"":""chart_hover"",""data"":{""x"":1098,""y"":294,""timestamp"":100250.89999997616},""timestamp"":100250.89999997616},{""type"":""chart_hover"",""data"":{""x"":1100,""y"":294,""timestamp"":100257.30000001192},""timestamp"":100257.30000001192},{""type"":""chart_hover"",""data"":{""x"":1102,""y"":295,""timestamp"":100265},""timestamp"":100265},{""type"":""chart_hover"",""data"":{""x"":1104,""y"":295,""timestamp"":100278.69999998808},""timestamp"":100278.69999998808},{""type"":""chart_hover"",""data"":{""x"":1106,""y"":295,""timestamp"":100284.39999997616},""timestamp"":100284.39999997616},{""type"":""chart_hover"",""data"":{""x"":1108,""y"":295,""timestamp"":100289.80000001192},""timestamp"":100289.80000001192},{""type"":""chart_hover"",""data"":{""x"":1110,""y"":295,""timestamp"":100297.10000002384},""timestamp"":100297.10000002384},{""type"":""chart_hover"",""data"":{""x"":1113,""y"":295,""timestamp"":100305.10000002384},""timestamp"":100305.10000002384},{""type"":""chart_hover"",""data"":{""x"":1115,""y"":295,""timestamp"":100317.80000001192},""timestamp"":100317.80000001192},{""type"":""chart_hover"",""data"":{""x"":1117,""y"":295,""timestamp"":100324.10000002384},""timestamp"":100324.10000002384},{""type"":""chart_hover"",""data"":{""x"":1118,""y"":295,""timestamp"":100329.30000001192},""timestamp"":100329.30000001192},{""type"":""chart_hover"",""data"":{""x"":1120,""y"":295,""timestamp"":100337},""timestamp"":100337},{""type"":""chart_hover"",""data"":{""x"":1122,""y"":295,""timestamp"":100345.10000002384},""timestamp"":100345.10000002384},{""type"":""chart_hover"",""data"":{""x"":1124,""y"":295,""timestamp"":100356.5},""timestamp"":100356.5},{""type"":""chart_hover"",""data"":{""x"":1126,""y"":295,""timestamp"":100362},""timestamp"":100362},{""type"":""chart_hover"",""data"":{""x"":1127,""y"":295,""timestamp"":100369},""timestamp"":100369},{""type"":""chart_hover"",""data"":{""x"":1128,""y"":295,""timestamp"":100377.10000002384},""timestamp"":100377.10000002384},{""type"":""chart_hover"",""data"":{""x"":1130,""y"":295,""timestamp"":100389.89999997616},""timestamp"":100389.89999997616},{""type"":""chart_hover"",""data"":{""x"":1131,""y"":295,""timestamp"":100395.39999997616},""timestamp"":100395.39999997616},{""type"":""chart_hover"",""data"":{""x"":1132,""y"":295,""timestamp"":100401.39999997616},""timestamp"":100401.39999997616},{""type"":""chart_hover"",""data"":{""x"":1133,""y"":295,""timestamp"":100409.10000002384},""timestamp"":100409.10000002384},{""type"":""chart_hover"",""data"":{""x"":1135,""y"":295,""timestamp"":100417.10000002384},""timestamp"":100417.10000002384},{""type"":""chart_hover"",""data"":{""x"":1137,""y"":295,""timestamp"":100428.69999998808},""timestamp"":100428.69999998808},{""type"":""chart_hover"",""data"":{""x"":1138,""y"":295,""timestamp"":100434.19999998808},""timestamp"":100434.19999998808},{""type"":""chart_hover"",""data"":{""x"":1140,""y"":295,""timestamp"":100441},""timestamp"":100441},{""type"":""chart_hover"",""data"":{""x"":1142,""y"":295,""timestamp"":100449},""timestamp"":100449},{""type"":""chart_hover"",""data"":{""x"":1144,""y"":295,""timestamp"":100462},""timestamp"":100462},{""type"":""chart_hover"",""data"":{""x"":1145,""y"":295,""timestamp"":100467.60000002384},""timestamp"":100467.60000002384},{""type"":""chart_hover"",""data"":{""x"":1146,""y"":295,""timestamp"":100473.10000002384},""timestamp"":100473.10000002384},{""type"":""chart_hover"",""data"":{""x"":1148,""y"":295,""timestamp"":100481.10000002384},""timestamp"":100481.10000002384},{""type"":""chart_hover"",""data"":{""x"":1149,""y"":295,""timestamp"":100489},""timestamp"":100489},{""type"":""chart_hover"",""data"":{""x"":1150,""y"":295,""timestamp"":100501},""timestamp"":100501},{""type"":""chart_hover"",""data"":{""x"":1151,""y"":295,""timestamp"":100506.30000001192},""timestamp"":100506.30000001192},{""type"":""chart_hover"",""data"":{""x"":1153,""y"":295,""timestamp"":100512.89999997616},""timestamp"":100512.89999997616},{""type"":""chart_hover"",""data"":{""x"":1154,""y"":295,""timestamp"":100521.19999998808},""timestamp"":100521.19999998808},{""type"":""chart_hover"",""data"":{""x"":1155,""y"":295,""timestamp"":100534.30000001192},""timestamp"":100534.30000001192},{""type"":""chart_hover"",""data"":{""x"":1156,""y"":295,""timestamp"":100539.80000001192},""timestamp"":100539.80000001192},{""type"":""chart_hover"",""data"":{""x"":1158,""y"":295,""timestamp"":100545.30000001192},""timestamp"":100545.30000001192},{""type"":""chart_hover"",""data"":{""x"":1159,""y"":295,""timestamp"":100552.89999997616},""timestamp"":100552.89999997616},{""type"":""chart_hover"",""data"":{""x"":1160,""y"":295,""timestamp"":100561.10000002384},""timestamp"":100561.10000002384},{""type"":""chart_hover"",""data"":{""x"":1162,""y"":295,""timestamp"":100573.19999998808},""timestamp"":100573.19999998808},{""type"":""chart_hover"",""data"":{""x"":1163,""y"":295,""timestamp"":100589.89999997616},""timestamp"":100589.89999997616},{""type"":""chart_hover"",""data"":{""x"":1164,""y"":295,""timestamp"":100606.5},""timestamp"":100606.5},{""type"":""chart_hover"",""data"":{""x"":1165,""y"":295,""timestamp"":100612.19999998808},""timestamp"":100612.19999998808},{""type"":""chart_hover"",""data"":{""x"":1166,""y"":295,""timestamp"":100617.5},""timestamp"":100617.5},{""type"":""chart_hover"",""data"":{""x"":1167,""y"":295,""timestamp"":100624.89999997616},""timestamp"":100624.89999997616},{""type"":""chart_hover"",""data"":{""x"":1168,""y"":295,""timestamp"":100633.19999998808},""timestamp"":100633.19999998808},{""type"":""chart_hover"",""data"":{""x"":1170,""y"":295,""timestamp"":100645.60000002384},""timestamp"":100645.60000002384},{""type"":""chart_hover"",""data"":{""x"":1171,""y"":295,""timestamp"":100651.89999997616},""timestamp"":100651.89999997616},{""type"":""chart_hover"",""data"":{""x"":1172,""y"":295,""timestamp"":100657.30000001192},""timestamp"":100657.30000001192},{""type"":""chart_hover"",""data"":{""x"":1174,""y"":295,""timestamp"":100665.10000002384},""timestamp"":100665.10000002384},{""type"":""chart_hover"",""data"":{""x"":1176,""y"":295,""timestamp"":100678.80000001192},""timestamp"":100678.80000001192},{""type"":""chart_hover"",""data"":{""x"":1179,""y"":296,""timestamp"":100684.30000001192},""timestamp"":100684.30000001192},{""type"":""chart_hover"",""data"":{""x"":1181,""y"":296,""timestamp"":100689.89999997616},""timestamp"":100689.89999997616},{""type"":""chart_hover"",""data"":{""x"":1183,""y"":296,""timestamp"":100696.80000001192},""timestamp"":100696.80000001192},{""type"":""chart_hover"",""data"":{""x"":1184,""y"":296,""timestamp"":100705.19999998808},""timestamp"":100705.19999998808},{""type"":""chart_hover"",""data"":{""x"":1185,""y"":296,""timestamp"":100717.69999998808},""timestamp"":100717.69999998808},{""type"":""chart_hover"",""data"":{""x"":1187,""y"":296,""timestamp"":100723.10000002384},""timestamp"":100723.10000002384},{""type"":""chart_hover"",""data"":{""x"":1189,""y"":296,""timestamp"":100729.69999998808},""timestamp"":100729.69999998808},{""type"":""chart_hover"",""data"":{""x"":1190,""y"":296,""timestamp"":100737},""timestamp"":100737},{""type"":""chart_hover"",""data"":{""x"":1191,""y"":296,""timestamp"":100751.10000002384},""timestamp"":100751.10000002384},{""type"":""chart_hover"",""data"":{""x"":1193,""y"":296,""timestamp"":100756.5},""timestamp"":100756.5},{""type"":""chart_hover"",""data"":{""x"":1194,""y"":296,""timestamp"":100762},""timestamp"":100762},{""type"":""chart_hover"",""data"":{""x"":1195,""y"":296,""timestamp"":100768.89999997616},""timestamp"":100768.89999997616},{""type"":""chart_hover"",""data"":{""x"":1197,""y"":296,""timestamp"":100777.19999998808},""timestamp"":100777.19999998808},{""type"":""chart_hover"",""data"":{""x"":1199,""y"":296,""timestamp"":100789.80000001192},""timestamp"":100789.80000001192},{""type"":""chart_hover"",""data"":{""x"":1202,""y"":296,""timestamp"":100795.60000002384},""timestamp"":100795.60000002384},{""type"":""chart_hover"",""data"":{""x"":1204,""y"":296,""timestamp"":100801.60000002384},""timestamp"":100801.60000002384},{""type"":""chart_hover"",""data"":{""x"":1206,""y"":296,""timestamp"":100808.80000001192},""timestamp"":100808.80000001192},{""type"":""chart_hover"",""data"":{""x"":1209,""y"":296,""timestamp"":100817.30000001192},""timestamp"":100817.30000001192},{""type"":""chart_hover"",""data"":{""x"":1211,""y"":296,""timestamp"":100828.80000001192},""timestamp"":100828.80000001192},{""type"":""chart_hover"",""data"":{""x"":1214,""y"":296,""timestamp"":100834.19999998808},""timestamp"":100834.19999998808},{""type"":""chart_hover"",""data"":{""x"":1216,""y"":296,""timestamp"":100840.89999997616},""timestamp"":100840.89999997616},{""type"":""chart_hover"",""data"":{""x"":1218,""y"":296,""timestamp"":100849},""timestamp"":100849},{""type"":""chart_hover"",""data"":{""x"":1220,""y"":296,""timestamp"":100862},""timestamp"":100862},{""type"":""chart_hover"",""data"":{""x"":1223,""y"":296,""timestamp"":100867.69999998808},""timestamp"":100867.69999998808},{""type"":""chart_hover"",""data"":{""x"":1225,""y"":296,""timestamp"":100873.30000001192},""timestamp"":100873.30000001192},{""type"":""chart_hover"",""data"":{""x"":1226,""y"":296,""timestamp"":100880.80000001192},""timestamp"":100880.80000001192},{""type"":""chart_hover"",""data"":{""x"":1227,""y"":296,""timestamp"":100889.30000001192},""timestamp"":100889.30000001192},{""type"":""chart_hover"",""data"":{""x"":1228,""y"":296,""timestamp"":100900.89999997616},""timestamp"":100900.89999997616},{""type"":""chart_hover"",""data"":{""x"":1230,""y"":296,""timestamp"":100906.39999997616},""timestamp"":100906.39999997616},{""type"":""chart_hover"",""data"":{""x"":1230,""y"":297,""timestamp"":100913.19999998808},""timestamp"":100913.19999998808},{""type"":""chart_hover"",""data"":{""x"":1232,""y"":297,""timestamp"":100921.10000002384},""timestamp"":100921.10000002384},{""type"":""chart_hover"",""data"":{""x"":1233,""y"":297,""timestamp"":100934.30000001192},""timestamp"":100934.30000001192},{""type"":""chart_hover"",""data"":{""x"":1234,""y"":297,""timestamp"":100939.80000001192},""timestamp"":100939.80000001192},{""type"":""chart_hover"",""data"":{""x"":1235,""y"":297,""timestamp"":100945.39999997616},""timestamp"":100945.39999997616},{""type"":""chart_hover"",""data"":{""x"":1236,""y"":297,""timestamp"":100952.80000001192},""timestamp"":100952.80000001192},{""type"":""chart_hover"",""data"":{""x"":1237,""y"":297,""timestamp"":100961.19999998808},""timestamp"":100961.19999998808},{""type"":""chart_hover"",""data"":{""x"":1239,""y"":298,""timestamp"":100973.30000001192},""timestamp"":100973.30000001192},{""type"":""chart_hover"",""data"":{""x"":1240,""y"":299,""timestamp"":100978.69999998808},""timestamp"":100978.69999998808},{""type"":""chart_hover"",""data"":{""x"":1242,""y"":299,""timestamp"":100985.30000001192},""timestamp"":100985.30000001192},{""type"":""chart_hover"",""data"":{""x"":1243,""y"":299,""timestamp"":100993},""timestamp"":100993},{""type"":""chart_hover"",""data"":{""x"":1246,""y"":300,""timestamp"":101006.60000002384},""timestamp"":101006.60000002384},{""type"":""chart_hover"",""data"":{""x"":1247,""y"":300,""timestamp"":101012.10000002384},""timestamp"":101012.10000002384},{""type"":""chart_hover"",""data"":{""x"":1249,""y"":301,""timestamp"":101017.60000002384},""timestamp"":101017.60000002384},{""type"":""chart_hover"",""data"":{""x"":1250,""y"":301,""timestamp"":101024.89999997616},""timestamp"":101024.89999997616},{""type"":""chart_hover"",""data"":{""x"":1252,""y"":301,""timestamp"":101033},""timestamp"":101033},{""type"":""chart_hover"",""data"":{""x"":1253,""y"":301,""timestamp"":101045.39999997616},""timestamp"":101045.39999997616},{""type"":""chart_hover"",""data"":{""x"":1254,""y"":302,""timestamp"":101050.89999997616},""timestamp"":101050.89999997616},{""type"":""chart_hover"",""data"":{""x"":1257,""y"":303,""timestamp"":101057.5},""timestamp"":101057.5},{""type"":""chart_hover"",""data"":{""x"":1258,""y"":303,""timestamp"":101064.89999997616},""timestamp"":101064.89999997616},{""type"":""chart_hover"",""data"":{""x"":1259,""y"":304,""timestamp"":101078.80000001192},""timestamp"":101078.80000001192},{""type"":""chart_hover"",""data"":{""x"":1260,""y"":304,""timestamp"":101084.19999998808},""timestamp"":101084.19999998808},{""type"":""chart_hover"",""data"":{""x"":1262,""y"":304,""timestamp"":101089.89999997616},""timestamp"":101089.89999997616},{""type"":""chart_hover"",""data"":{""x"":1263,""y"":304,""timestamp"":101106.39999997616},""timestamp"":101106.39999997616},{""type"":""chart_hover"",""data"":{""x"":1263,""y"":305,""timestamp"":101330.39999997616},""timestamp"":101330.39999997616},{""type"":""chart_hover"",""data"":{""x"":1264,""y"":305,""timestamp"":101346.5},""timestamp"":101346.5},{""type"":""chart_hover"",""data"":{""x"":1265,""y"":306,""timestamp"":101352.80000001192},""timestamp"":101352.80000001192},{""type"":""chart_hover"",""data"":{""x"":1265,""y"":307,""timestamp"":101369.19999998808},""timestamp"":101369.19999998808},{""type"":""chart_hover"",""data"":{""x"":1266,""y"":307,""timestamp"":101377.10000002384},""timestamp"":101377.10000002384},{""type"":""chart_hover"",""data"":{""x"":1265,""y"":308,""timestamp"":101434.10000002384},""timestamp"":101434.10000002384},{""type"":""chart_hover"",""data"":{""x"":1264,""y"":308,""timestamp"":101441.19999998808},""timestamp"":101441.19999998808},{""type"":""chart_hover"",""data"":{""x"":1263,""y"":308,""timestamp"":101449},""timestamp"":101449},{""type"":""chart_hover"",""data"":{""x"":1262,""y"":308,""timestamp"":104491.39999997616},""timestamp"":104491.39999997616},{""type"":""chart_hover"",""data"":{""x"":1260,""y"":308,""timestamp"":104497.10000002384},""timestamp"":104497.10000002384},{""type"":""chart_hover"",""data"":{""x"":1258,""y"":308,""timestamp"":104505.19999998808},""timestamp"":104505.19999998808},{""type"":""chart_hover"",""data"":{""x"":1256,""y"":308,""timestamp"":104517.89999997616},""timestamp"":104517.89999997616},{""type"":""chart_hover"",""data"":{""x"":1254,""y"":308,""timestamp"":104523.19999998808},""timestamp"":104523.19999998808},{""type"":""chart_hover"",""data"":{""x"":1252,""y"":308,""timestamp"":104529.80000001192},""timestamp"":104529.80000001192},{""type"":""chart_hover"",""data"":{""x"":1251,""y"":309,""timestamp"":104906.80000001192},""timestamp"":104906.80000001192},{""type"":""chart_hover"",""data"":{""x"":1251,""y"":310,""timestamp"":104913.5},""timestamp"":104913.5},{""type"":""chart_hover"",""data"":{""x"":1249,""y"":312,""timestamp"":104921.19999998808},""timestamp"":104921.19999998808},{""type"":""chart_hover"",""data"":{""x"":1248,""y"":314,""timestamp"":104934.69999998808},""timestamp"":104934.69999998808},{""type"":""chart_hover"",""data"":{""x"":1246,""y"":317,""timestamp"":104940},""timestamp"":104940},{""type"":""chart_hover"",""data"":{""x"":1243,""y"":322,""timestamp"":104945.5},""timestamp"":104945.5},{""type"":""chart_hover"",""data"":{""x"":1241,""y"":329,""timestamp"":104953},""timestamp"":104953},{""type"":""chart_hover"",""data"":{""x"":1238,""y"":337,""timestamp"":104961.19999998808},""timestamp"":104961.19999998808},{""type"":""chart_hover"",""data"":{""x"":1235,""y"":347,""timestamp"":104973.30000001192},""timestamp"":104973.30000001192},{""type"":""chart_hover"",""data"":{""x"":1232,""y"":356,""timestamp"":104978.69999998808},""timestamp"":104978.69999998808},{""type"":""chart_hover"",""data"":{""x"":1228,""y"":367,""timestamp"":104985.30000001192},""timestamp"":104985.30000001192},{""type"":""chart_hover"",""data"":{""x"":1226,""y"":378,""timestamp"":104994},""timestamp"":104994},{""type"":""chart_hover"",""data"":{""x"":1224,""y"":389,""timestamp"":105006.80000001192},""timestamp"":105006.80000001192},{""type"":""chart_hover"",""data"":{""x"":1223,""y"":400,""timestamp"":105012.10000002384},""timestamp"":105012.10000002384},{""type"":""chart_hover"",""data"":{""x"":1222,""y"":411,""timestamp"":105017.69999998808},""timestamp"":105017.69999998808},{""type"":""chart_hover"",""data"":{""x"":1221,""y"":420,""timestamp"":105025},""timestamp"":105025},{""type"":""chart_hover"",""data"":{""x"":1219,""y"":431,""timestamp"":105033.30000001192},""timestamp"":105033.30000001192},{""type"":""chart_hover"",""data"":{""x"":1214,""y"":442,""timestamp"":105045.5},""timestamp"":105045.5},{""type"":""chart_hover"",""data"":{""x"":1210,""y"":454,""timestamp"":105051},""timestamp"":105051},{""type"":""chart_hover"",""data"":{""x"":1204,""y"":466,""timestamp"":105057.60000002384},""timestamp"":105057.60000002384},{""type"":""chart_hover"",""data"":{""x"":1197,""y"":479,""timestamp"":105065.30000001192},""timestamp"":105065.30000001192},{""type"":""chart_hover"",""data"":{""x"":1188,""y"":495,""timestamp"":105073.30000001192},""timestamp"":105073.30000001192},{""type"":""chart_hover"",""data"":{""x"":1177,""y"":511,""timestamp"":105080.89999997616},""timestamp"":105080.89999997616},{""type"":""chart_hover"",""data"":{""x"":1165,""y"":530,""timestamp"":105089.19999998808},""timestamp"":105089.19999998808},{""type"":""chart_hover"",""data"":{""x"":1153,""y"":547,""timestamp"":105101},""timestamp"":105101},{""type"":""chart_hover"",""data"":{""x"":1138,""y"":565,""timestamp"":105106.69999998808},""timestamp"":105106.69999998808},{""type"":""chart_hover"",""data"":{""x"":1125,""y"":580,""timestamp"":105113.19999998808},""timestamp"":105113.19999998808},{""type"":""chart_hover"",""data"":{""x"":1111,""y"":595,""timestamp"":105121.19999998808},""timestamp"":105121.19999998808},{""type"":""chart_leave"",""data"":{""timestamp"":105134.60000002384},""timestamp"":105134.60000002384},{""type"":""chart_enter"",""data"":{""timestamp"":143532.30000001192},""timestamp"":143532.30000001192},{""type"":""chart_hover"",""data"":{""x"":1311,""y"":561,""timestamp"":143532.39999997616},""timestamp"":143532.39999997616},{""type"":""chart_hover"",""data"":{""x"":1310,""y"":561,""timestamp"":143541.19999998808},""timestamp"":143541.19999998808},{""type"":""chart_hover"",""data"":{""x"":1308,""y"":562,""timestamp"":143552.30000001192},""timestamp"":143552.30000001192},{""type"":""chart_hover"",""data"":{""x"":1304,""y"":563,""timestamp"":143557.89999997616},""timestamp"":143557.89999997616},{""type"":""chart_hover"",""data"":{""x"":1298,""y"":564,""timestamp"":143563.5},""timestamp"":143563.5},{""type"":""chart_hover"",""data"":{""x"":1291,""y"":568,""timestamp"":143574.80000001192},""timestamp"":143574.80000001192},{""type"":""chart_hover"",""data"":{""x"":1281,""y"":571,""timestamp"":143580},""timestamp"":143580},{""type"":""chart_hover"",""data"":{""x"":1271,""y"":575,""timestamp"":143591.30000001192},""timestamp"":143591.30000001192},{""type"":""chart_hover"",""data"":{""x"":1260,""y"":579,""timestamp"":143596.69999998808},""timestamp"":143596.69999998808},{""type"":""chart_hover"",""data"":{""x"":1248,""y"":584,""timestamp"":143608.10000002384},""timestamp"":143608.10000002384},{""type"":""chart_hover"",""data"":{""x"":1234,""y"":590,""timestamp"":143613.30000001192},""timestamp"":143613.30000001192},{""type"":""chart_hover"",""data"":{""x"":1219,""y"":596,""timestamp"":143618.89999997616},""timestamp"":143618.89999997616},{""type"":""chart_leave"",""data"":{""timestamp"":143630.19999998808},""timestamp"":143630.19999998808},{""type"":""chart_enter"",""data"":{""timestamp"":146418.89999997616},""timestamp"":146418.89999997616},{""type"":""chart_hover"",""data"":{""x"":1056,""y"":599,""timestamp"":146419},""timestamp"":146419},{""type"":""chart_hover"",""data"":{""x"":1052,""y"":597,""timestamp"":146430.10000002384},""timestamp"":146430.10000002384},{""type"":""chart_hover"",""data"":{""x"":1047,""y"":596,""timestamp"":146435.89999997616},""timestamp"":146435.89999997616},{""type"":""chart_hover"",""data"":{""x"":1043,""y"":594,""timestamp"":146446.80000001192},""timestamp"":146446.80000001192},{""type"":""chart_hover"",""data"":{""x"":1040,""y"":592,""timestamp"":146452.39999997616},""timestamp"":146452.39999997616},{""type"":""chart_hover"",""data"":{""x"":1036,""y"":590,""timestamp"":146463.60000002384},""timestamp"":146463.60000002384},{""type"":""chart_hover"",""data"":{""x"":1034,""y"":590,""timestamp"":146469.19999998808},""timestamp"":146469.19999998808},{""type"":""chart_hover"",""data"":{""x"":1033,""y"":589,""timestamp"":146481.10000002384},""timestamp"":146481.10000002384},{""type"":""chart_hover"",""data"":{""x"":1032,""y"":589,""timestamp"":146485.69999998808},""timestamp"":146485.69999998808},{""type"":""chart_hover"",""data"":{""x"":1032,""y"":588,""timestamp"":146652.39999997616},""timestamp"":146652.39999997616},{""type"":""chart_hover"",""data"":{""x"":1034,""y"":587,""timestamp"":146663.5},""timestamp"":146663.5},{""type"":""chart_hover"",""data"":{""x"":1039,""y"":583,""timestamp"":146669.19999998808},""timestamp"":146669.19999998808},{""type"":""chart_hover"",""data"":{""x"":1044,""y"":578,""timestamp"":146680.39999997616},""timestamp"":146680.39999997616},{""type"":""chart_hover"",""data"":{""x"":1050,""y"":572,""timestamp"":146685.60000002384},""timestamp"":146685.60000002384},{""type"":""chart_hover"",""data"":{""x"":1059,""y"":562,""timestamp"":146691.19999998808},""timestamp"":146691.19999998808},{""type"":""chart_hover"",""data"":{""x"":1070,""y"":550,""timestamp"":146702.30000001192},""timestamp"":146702.30000001192},{""type"":""chart_hover"",""data"":{""x"":1084,""y"":532,""timestamp"":146708},""timestamp"":146708},{""type"":""chart_hover"",""data"":{""x"":1104,""y"":509,""timestamp"":146719.10000002384},""timestamp"":146719.10000002384},{""type"":""chart_hover"",""data"":{""x"":1126,""y"":482,""timestamp"":146724.60000002384},""timestamp"":146724.69999998808},{""type"":""chart_hover"",""data"":{""x"":1150,""y"":451,""timestamp"":146736.10000002384},""timestamp"":146736.10000002384},{""type"":""chart_hover"",""data"":{""x"":1173,""y"":418,""timestamp"":146742.30000001192},""timestamp"":146742.30000001192},{""type"":""chart_hover"",""data"":{""x"":1197,""y"":383,""timestamp"":146746.80000001192},""timestamp"":146746.80000001192},{""type"":""chart_hover"",""data"":{""x"":1221,""y"":350,""timestamp"":146754.10000002384},""timestamp"":146754.10000002384},{""type"":""chart_hover"",""data"":{""x"":1242,""y"":322,""timestamp"":146762.5},""timestamp"":146762.5},{""type"":""chart_hover"",""data"":{""x"":1260,""y"":298,""timestamp"":146774.60000002384},""timestamp"":146774.60000002384},{""type"":""chart_hover"",""data"":{""x"":1275,""y"":278,""timestamp"":146780.10000002384},""timestamp"":146780.10000002384},{""type"":""chart_hover"",""data"":{""x"":1286,""y"":262,""timestamp"":146786.5},""timestamp"":146786.5},{""type"":""chart_hover"",""data"":{""x"":1295,""y"":248,""timestamp"":146794.30000001192},""timestamp"":146794.30000001192},{""type"":""chart_hover"",""data"":{""x"":1303,""y"":238,""timestamp"":146807.89999997616},""timestamp"":146807.89999997616},{""type"":""chart_hover"",""data"":{""x"":1308,""y"":228,""timestamp"":146813.39999997616},""timestamp"":146813.39999997616},{""type"":""chart_hover"",""data"":{""x"":1315,""y"":219,""timestamp"":146818.89999997616},""timestamp"":146818.89999997616},{""type"":""chart_hover"",""data"":{""x"":1320,""y"":212,""timestamp"":146826.39999997616},""timestamp"":146826.39999997616},{""type"":""chart_hover"",""data"":{""x"":1325,""y"":205,""timestamp"":146834.39999997616},""timestamp"":146834.39999997616},{""type"":""chart_hover"",""data"":{""x"":1331,""y"":197,""timestamp"":146846.69999998808},""timestamp"":146846.69999998808},{""type"":""chart_hover"",""data"":{""x"":1338,""y"":191,""timestamp"":146852.19999998808},""timestamp"":146852.19999998808},{""type"":""chart_hover"",""data"":{""x"":1344,""y"":185,""timestamp"":146858.80000001192},""timestamp"":146858.80000001192},{""type"":""chart_hover"",""data"":{""x"":1351,""y"":179,""timestamp"":146866.39999997616},""timestamp"":146866.39999997616},{""type"":""chart_hover"",""data"":{""x"":1359,""y"":172,""timestamp"":146880},""timestamp"":146880},{""type"":""chart_hover"",""data"":{""x"":1366,""y"":166,""timestamp"":146885.80000001192},""timestamp"":146885.80000001192},{""type"":""chart_hover"",""data"":{""x"":1375,""y"":160,""timestamp"":146892.10000002384},""timestamp"":146892.10000002384},{""type"":""chart_hover"",""data"":{""x"":1381,""y"":155,""timestamp"":146898.19999998808},""timestamp"":146898.19999998808},{""type"":""chart_hover"",""data"":{""x"":1387,""y"":151,""timestamp"":146906.39999997616},""timestamp"":146906.39999997616},{""type"":""chart_hover"",""data"":{""x"":1392,""y"":147,""timestamp"":146919},""timestamp"":146919},{""type"":""chart_hover"",""data"":{""x"":1395,""y"":145,""timestamp"":146924.39999997616},""timestamp"":146924.39999997616},{""type"":""chart_hover"",""data"":{""x"":1399,""y"":142,""timestamp"":146930.69999998808},""timestamp"":146930.69999998808},{""type"":""chart_hover"",""data"":{""x"":1401,""y"":141,""timestamp"":146938.39999997616},""timestamp"":146938.39999997616},{""type"":""chart_hover"",""data"":{""x"":1403,""y"":139,""timestamp"":146946.5},""timestamp"":146946.5},{""type"":""chart_hover"",""data"":{""x"":1404,""y"":139,""timestamp"":146957.80000001192},""timestamp"":146957.80000001192},{""type"":""chart_hover"",""data"":{""x"":1405,""y"":138,""timestamp"":146963.5},""timestamp"":146963.5},{""type"":""chart_hover"",""data"":{""x"":1406,""y"":137,""timestamp"":146970.39999997616},""timestamp"":146970.39999997616},{""type"":""chart_hover"",""data"":{""x"":1407,""y"":136,""timestamp"":146987.39999997616},""timestamp"":146987.39999997616},{""type"":""chart_hover"",""data"":{""x"":1409,""y"":136,""timestamp"":146994.30000001192},""timestamp"":146994.30000001192},{""type"":""chart_hover"",""data"":{""x"":1410,""y"":134,""timestamp"":147007.80000001192},""timestamp"":147007.80000001192},{""type"":""chart_hover"",""data"":{""x"":1412,""y"":133,""timestamp"":147013.39999997616},""timestamp"":147013.39999997616},{""type"":""chart_hover"",""data"":{""x"":1413,""y"":132,""timestamp"":147018.89999997616},""timestamp"":147018.89999997616},{""type"":""chart_hover"",""data"":{""x"":1414,""y"":131,""timestamp"":147026.19999998808},""timestamp"":147026.19999998808},{""type"":""chart_hover"",""data"":{""x"":1417,""y"":129,""timestamp"":147034.39999997616},""timestamp"":147034.39999997616},{""type"":""chart_hover"",""data"":{""x"":1419,""y"":128,""timestamp"":147046.69999998808},""timestamp"":147046.69999998808},{""type"":""chart_hover"",""data"":{""x"":1421,""y"":126,""timestamp"":147052.39999997616},""timestamp"":147052.39999997616},{""type"":""chart_hover"",""data"":{""x"":1423,""y"":125,""timestamp"":147059.19999998808},""timestamp"":147059.19999998808},{""type"":""chart_hover"",""data"":{""x"":1424,""y"":123,""timestamp"":147066.39999997616},""timestamp"":147066.39999997616},{""type"":""chart_hover"",""data"":{""x"":1426,""y"":123,""timestamp"":147074.5},""timestamp"":147074.5},{""type"":""chart_hover"",""data"":{""x"":1428,""y"":121,""timestamp"":147082.5},""timestamp"":147082.5},{""type"":""chart_hover"",""data"":{""x"":1429,""y"":120,""timestamp"":147090.39999997616},""timestamp"":147090.39999997616},{""type"":""chart_hover"",""data"":{""x"":1430,""y"":120,""timestamp"":147102.30000001192},""timestamp"":147102.30000001192},{""type"":""chart_hover"",""data"":{""x"":1432,""y"":118,""timestamp"":147107.69999998808},""timestamp"":147107.69999998808},{""type"":""chart_hover"",""data"":{""x"":1434,""y"":117,""timestamp"":147114.39999997616},""timestamp"":147114.39999997616},{""type"":""chart_hover"",""data"":{""x"":1437,""y"":115,""timestamp"":147122.5},""timestamp"":147122.5},{""type"":""chart_hover"",""data"":{""x"":1441,""y"":114,""timestamp"":147135.60000002384},""timestamp"":147135.60000002384},{""type"":""chart_hover"",""data"":{""x"":1444,""y"":111,""timestamp"":147141.19999998808},""timestamp"":147141.19999998808},{""type"":""chart_hover"",""data"":{""x"":1449,""y"":108,""timestamp"":147146.69999998808},""timestamp"":147146.69999998808},{""type"":""chart_leave"",""data"":{""timestamp"":147154.30000001192},""timestamp"":147154.30000001192},{""type"":""chart_enter"",""data"":{""timestamp"":147770.5},""timestamp"":147770.5},{""type"":""chart_hover"",""data"":{""x"":1355,""y"":113,""timestamp"":147770.5},""timestamp"":147770.5},{""type"":""chart_hover"",""data"":{""x"":1316,""y"":129,""timestamp"":147780.5},""timestamp"":147780.5},{""type"":""chart_hover"",""data"":{""x"":1274,""y"":146,""timestamp"":147791.30000001192},""timestamp"":147791.30000001192},{""type"":""chart_hover"",""data"":{""x"":1232,""y"":165,""timestamp"":147797.19999998808},""timestamp"":147797.19999998808},{""type"":""chart_hover"",""data"":{""x"":1188,""y"":185,""timestamp"":147808},""timestamp"":147808},{""type"":""chart_hover"",""data"":{""x"":1143,""y"":204,""timestamp"":147813.60000002384},""timestamp"":147813.60000002384},{""type"":""chart_hover"",""data"":{""x"":1101,""y"":223,""timestamp"":147819.10000002384},""timestamp"":147819.10000002384},{""type"":""chart_hover"",""data"":{""x"":1060,""y"":240,""timestamp"":147830.30000001192},""timestamp"":147830.30000001192},{""type"":""chart_hover"",""data"":{""x"":1023,""y"":257,""timestamp"":147835.69999998808},""timestamp"":147835.69999998808},{""type"":""chart_hover"",""data"":{""x"":990,""y"":271,""timestamp"":147846.89999997616},""timestamp"":147846.89999997616},{""type"":""chart_hover"",""data"":{""x"":961,""y"":282,""timestamp"":147852.60000002384},""timestamp"":147852.60000002384},{""type"":""chart_hover"",""data"":{""x"":941,""y"":293,""timestamp"":147863.5},""timestamp"":147863.5},{""type"":""chart_hover"",""data"":{""x"":926,""y"":299,""timestamp"":147869},""timestamp"":147869},{""type"":""chart_hover"",""data"":{""x"":915,""y"":303,""timestamp"":147881.69999998808},""timestamp"":147881.69999998808},{""type"":""chart_hover"",""data"":{""x"":907,""y"":306,""timestamp"":147885.80000001192},""timestamp"":147885.80000001192},{""type"":""chart_hover"",""data"":{""x"":902,""y"":308,""timestamp"":147891.80000001192},""timestamp"":147891.80000001192},{""type"":""chart_hover"",""data"":{""x"":899,""y"":310,""timestamp"":147902.69999998808},""timestamp"":147902.69999998808},{""type"":""chart_hover"",""data"":{""x"":897,""y"":311,""timestamp"":147908.19999998808},""timestamp"":147908.19999998808},{""type"":""chart_hover"",""data"":{""x"":895,""y"":311,""timestamp"":147919},""timestamp"":147919},{""type"":""chart_hover"",""data"":{""x"":894,""y"":312,""timestamp"":147924.69999998808},""timestamp"":147924.69999998808},{""type"":""chart_hover"",""data"":{""x"":892,""y"":313,""timestamp"":147935.80000001192},""timestamp"":147935.80000001192},{""type"":""chart_hover"",""data"":{""x"":891,""y"":314,""timestamp"":147941.39999997616},""timestamp"":147941.39999997616},{""type"":""chart_hover"",""data"":{""x"":889,""y"":316,""timestamp"":147946.89999997616},""timestamp"":147946.89999997616},{""type"":""chart_hover"",""data"":{""x"":887,""y"":317,""timestamp"":147958},""timestamp"":147958},{""type"":""chart_hover"",""data"":{""x"":884,""y"":319,""timestamp"":147963.60000002384},""timestamp"":147963.60000002384},{""type"":""chart_hover"",""data"":{""x"":881,""y"":323,""timestamp"":147974.69999998808},""timestamp"":147974.69999998808},{""type"":""chart_hover"",""data"":{""x"":877,""y"":327,""timestamp"":147980.10000002384},""timestamp"":147980.10000002384},{""type"":""chart_hover"",""data"":{""x"":872,""y"":332,""timestamp"":147991.60000002384},""timestamp"":147991.60000002384},{""type"":""chart_hover"",""data"":{""x"":867,""y"":338,""timestamp"":147997},""timestamp"":147997},{""type"":""chart_hover"",""data"":{""x"":861,""y"":344,""timestamp"":148008.10000002384},""timestamp"":148008.10000002384},{""type"":""chart_hover"",""data"":{""x"":856,""y"":350,""timestamp"":148013.69999998808},""timestamp"":148013.69999998808},{""type"":""chart_hover"",""data"":{""x"":852,""y"":356,""timestamp"":148019.10000002384},""timestamp"":148019.10000002384},{""type"":""chart_hover"",""data"":{""x"":847,""y"":363,""timestamp"":148030.39999997616},""timestamp"":148030.39999997616},{""type"":""chart_hover"",""data"":{""x"":843,""y"":371,""timestamp"":148035.69999998808},""timestamp"":148035.69999998808},{""type"":""chart_hover"",""data"":{""x"":840,""y"":378,""timestamp"":148047.89999997616},""timestamp"":148047.89999997616},{""type"":""chart_hover"",""data"":{""x"":837,""y"":385,""timestamp"":148052.5},""timestamp"":148052.5},{""type"":""chart_hover"",""data"":{""x"":835,""y"":392,""timestamp"":148063.60000002384},""timestamp"":148063.60000002384},{""type"":""chart_hover"",""data"":{""x"":834,""y"":400,""timestamp"":148070.39999997616},""timestamp"":148070.39999997616},{""type"":""chart_hover"",""data"":{""x"":833,""y"":408,""timestamp"":148074.69999998808},""timestamp"":148074.69999998808},{""type"":""chart_hover"",""data"":{""x"":833,""y"":416,""timestamp"":148082.89999997616},""timestamp"":148082.89999997616},{""type"":""chart_hover"",""data"":{""x"":833,""y"":424,""timestamp"":148090.60000002384},""timestamp"":148090.60000002384},{""type"":""chart_hover"",""data"":{""x"":833,""y"":434,""timestamp"":148102.60000002384},""timestamp"":148102.60000002384},{""type"":""chart_hover"",""data"":{""x"":834,""y"":443,""timestamp"":148109},""timestamp"":148109},{""type"":""chart_hover"",""data"":{""x"":836,""y"":453,""timestamp"":148114.39999997616},""timestamp"":148114.39999997616},{""type"":""chart_hover"",""data"":{""x"":840,""y"":461,""timestamp"":148122.39999997616},""timestamp"":148122.39999997616},{""type"":""chart_hover"",""data"":{""x"":843,""y"":471,""timestamp"":148135.60000002384},""timestamp"":148135.60000002384},{""type"":""chart_hover"",""data"":{""x"":847,""y"":479,""timestamp"":148141.30000001192},""timestamp"":148141.30000001192},{""type"":""chart_hover"",""data"":{""x"":852,""y"":488,""timestamp"":148146.80000001192},""timestamp"":148146.80000001192},{""type"":""chart_hover"",""data"":{""x"":858,""y"":496,""timestamp"":148154.19999998808},""timestamp"":148154.19999998808},{""type"":""chart_hover"",""data"":{""x"":864,""y"":504,""timestamp"":148163.10000002384},""timestamp"":148163.10000002384},{""type"":""chart_hover"",""data"":{""x"":870,""y"":510,""timestamp"":148174.60000002384},""timestamp"":148174.60000002384},{""type"":""chart_hover"",""data"":{""x"":878,""y"":516,""timestamp"":148180.10000002384},""timestamp"":148180.10000002384},{""type"":""chart_hover"",""data"":{""x"":885,""y"":522,""timestamp"":148186.60000002384},""timestamp"":148186.60000002384},{""type"":""chart_hover"",""data"":{""x"":894,""y"":526,""timestamp"":148194.30000001192},""timestamp"":148194.30000001192},{""type"":""chart_hover"",""data"":{""x"":902,""y"":529,""timestamp"":148208},""timestamp"":148208},{""type"":""chart_hover"",""data"":{""x"":910,""y"":532,""timestamp"":148213.5},""timestamp"":148213.5},{""type"":""chart_hover"",""data"":{""x"":920,""y"":534,""timestamp"":148219},""timestamp"":148219},{""type"":""chart_hover"",""data"":{""x"":928,""y"":535,""timestamp"":148226},""timestamp"":148226},{""type"":""chart_hover"",""data"":{""x"":936,""y"":536,""timestamp"":148234.5},""timestamp"":148234.5},{""type"":""chart_hover"",""data"":{""x"":943,""y"":537,""timestamp"":148246.80000001192},""timestamp"":148246.80000001192},{""type"":""chart_hover"",""data"":{""x"":947,""y"":537,""timestamp"":148252.5},""timestamp"":148252.5},{""type"":""chart_hover"",""data"":{""x"":950,""y"":537,""timestamp"":148258.89999997616},""timestamp"":148258.89999997616},{""type"":""chart_hover"",""data"":{""x"":952,""y"":537,""timestamp"":148266.30000001192},""timestamp"":148266.30000001192},{""type"":""chart_hover"",""data"":{""x"":954,""y"":537,""timestamp"":148280.19999998808},""timestamp"":148280.19999998808},{""type"":""chart_leave"",""data"":{""timestamp"":149999.69999998808},""timestamp"":149999.80000001192},{""type"":""chart_enter"",""data"":{""timestamp"":150535.80000001192},""timestamp"":150535.80000001192},{""type"":""chart_hover"",""data"":{""x"":925,""y"":494,""timestamp"":150535.80000001192},""timestamp"":150535.80000001192},{""type"":""chart_hover"",""data"":{""x"":918,""y"":485,""timestamp"":150541.5},""timestamp"":150541.5},{""type"":""chart_hover"",""data"":{""x"":910,""y"":476,""timestamp"":150547.69999998808},""timestamp"":150547.69999998808},{""type"":""chart_hover"",""data"":{""x"":901,""y"":469,""timestamp"":150558.10000002384},""timestamp"":150558.10000002384},{""type"":""chart_hover"",""data"":{""x"":891,""y"":461,""timestamp"":150563.60000002384},""timestamp"":150563.60000002384},{""type"":""chart_hover"",""data"":{""x"":883,""y"":453,""timestamp"":150574.69999998808},""timestamp"":150574.69999998808},{""type"":""chart_hover"",""data"":{""x"":873,""y"":446,""timestamp"":150580.19999998808},""timestamp"":150580.19999998808},{""type"":""chart_hover"",""data"":{""x"":864,""y"":438,""timestamp"":150591.5},""timestamp"":150591.5},{""type"":""chart_hover"",""data"":{""x"":855,""y"":431,""timestamp"":150597},""timestamp"":150597},{""type"":""chart_hover"",""data"":{""x"":846,""y"":424,""timestamp"":150608.60000002384},""timestamp"":150608.60000002384},{""type"":""chart_hover"",""data"":{""x"":838,""y"":417,""timestamp"":150613.60000002384},""timestamp"":150613.60000002384},{""type"":""chart_hover"",""data"":{""x"":830,""y"":411,""timestamp"":150619.19999998808},""timestamp"":150619.19999998808},{""type"":""chart_hover"",""data"":{""x"":823,""y"":404,""timestamp"":150630.30000001192},""timestamp"":150630.30000001192},{""type"":""chart_hover"",""data"":{""x"":815,""y"":398,""timestamp"":150635.80000001192},""timestamp"":150635.80000001192},{""type"":""chart_hover"",""data"":{""x"":809,""y"":391,""timestamp"":150647},""timestamp"":150647},{""type"":""chart_hover"",""data"":{""x"":803,""y"":384,""timestamp"":150652.5},""timestamp"":150652.5},{""type"":""chart_hover"",""data"":{""x"":798,""y"":378,""timestamp"":150663.69999998808},""timestamp"":150663.69999998808},{""type"":""chart_hover"",""data"":{""x"":793,""y"":371,""timestamp"":150669.39999997616},""timestamp"":150669.39999997616},{""type"":""chart_hover"",""data"":{""x"":787,""y"":364,""timestamp"":150681.60000002384},""timestamp"":150681.60000002384},{""type"":""chart_hover"",""data"":{""x"":782,""y"":356,""timestamp"":150685.80000001192},""timestamp"":150685.80000001192},{""type"":""chart_hover"",""data"":{""x"":777