city_a_estimate,city_b_estimate,click_events,comprehension_ease,condition,condition_id,condition_name,confidence_label,confidence_rating,data_trust,display_format,end_time,hover_events,interaction_log,internal_node_id,participant_id,percent_score,phase,phase1_complete,phase2_complete,predictions_shown,probability_estimate,question_order,response,responses,round,rt,rt_total,skeptical_rating,start_time,stimulus,time_elapsed,time_on_viz,total_interactions,total_questions,total_score,travel_choice,trial_index,trial_type,trust_composite,usability_composite,usability_difficulty,view_history,visualization_literacy_score,visualization_shown
,,,,,,,,,,,,,,0.0-0.0,,,,,,,,,0,,,984,,,,"
	        <div class=""welcome-screen"">
	            <h1>Air Quality Prediction Study</h1>
	            <p>Welcome! You are about to participate in a research study about how people make decisions using air quality predictions. This study examines how different ways of presenting prediction information affect trust and decision-making. The study will take approximately 15 minutes.</p>
	            <div class=""study-info"">
	                <h3>What you'll do:</h3>
	                <ul>
	                    <li>Complete a brief assessment of visualization understanding</li>
	                    <li>Make predictions about air quality in two cities</li>
	                    <li>Answer questions about your confidence and trust</li>
						<li>Report basic demographic data</li>
	                </ul>
	            </div>
	        </div>
	    ",986,,,,,,0,html-button-response,,,,,,
,,,,,,,,,,,,,,0.0-1.0,,,,,,,,,0,,,1771,,,,"
	        <div class=""consent-form"">
	            <h2>Consent Form</h2>
	            <div class=""consent-header"">
	                <p><strong>Principal Investigator:</strong> Dr. Cindy Xiong Bearfield, Assistant Professor</p>
	                <p><strong>Study Title:</strong> Trusting What We See: Effect of Interactivity in Visual Data Analysis</p>
	                <p><strong>Supported By:</strong> Georgia Institute of Technology</p>
	            </div>
	            
	            <div class=""consent-details"">
	                <h3>WHAT IS THIS FORM?</h3>
	                <p>This form is called a Consent Form. It will give you information about the study so you can make an informed decision about participation in this research. We encourage you to take some time to think this over and ask questions now and at any other time. If you decide to participate, you will be asked to sign this form and you will be given a copy for your records.</p>

	                <h3>WHAT ARE SOME OF THE IMPORTANT ASPECTS OF THIS RESEARCH STUDY THAT I SHOULD BE AWARE OF?</h3>
	                <ul>
	                    <li>Whether or not you take part is up to you.</li>
	                    <li>You can choose not to take part.</li>
	                    <li>You can agree to take part and later change your mind.</li>
	                    <li>Your decision will not be held against you.</li>
	                </ul>

	                <h3>WHY ARE WE DOING THIS RESEARCH STUDY?</h3>
	                <p>The purpose of our study is to explore the visualization design space so we can understand how people perceive, interpret, and make decisions from visualizations. The results from this study can help us design visualizations and visualization guidelines to help people better communicate and understand data.</p>

	                <h3>WHO CAN PARTICIPATE IN THIS RESEARCH STUDY?</h3>
	                <p>Participants in this study must be at least 18 years of age or older and have general familiarity with using web-based systems. Participants currently outside of the U.S. cannot participate in this study (e.g. in the European Union or China).</p>

	                <h3>WHAT COMPENSATION I WILL RECEIVE?</h3>
	                <p>You will receive payment through Prolific worth $12/hour for participating in this study. We expect this study to take less than 20 minutes. Your participation is entirely voluntary. You are free to withdraw at any time, and if you do, you will receive partial payment for your time.</p>

	                <h3>HOW MANY PEOPLE WILL PARTICIPATE?</h3>
	                <p>We expect about 200 people will be in this research study.</p>

	                <h3>WHAT WILL I BE ASKED TO DO AND HOW MUCH TIME WILL IT TAKE?</h3>
	                <p>We will show you several data visualizations or components of a visualization and ask you to perform a visual task with the visualization on a computer screen, such as counting, searching, recognizing, memorizing, or describing the information presented to you. We may also ask you to fill out questionnaires concerning your thoughts regarding the visualization you saw. We expect that you will be in this research study to take between 15 and 60 minutes. We expect this study to be a one-off session and will not contact you regarding the study itself in the future.</p>

	                <h3>WILL BEING IN THIS RESEARCH STUDY HELP ME IN ANY WAY?</h3>
	                <p>You are not likely to have any direct benefit from being in this research study. The potential benefits to you from participation may include learning about how data visualization research is conducted, and you may learn about issues of current interest in data visualization and psychology.</p>

	                <h3>WHAT ARE MY RISKS OF BEING IN THIS RESEARCH STUDY?</h3>
	                <p>Your participation in this study does not involve any risks other than what you would encounter in daily life. In particular, you may experience fatigue or boredom, however, you may take breaks between tasks. The effects of participating should be comparable to those you would experience from viewing a computer monitor and using a keyboard. You may withdraw at any time.</p>

	                <h3>HOW WILL MY PERSONAL INFORMATION BE PROTECTED?</h3>
	                <p>We will comply with any applicable laws and regulations regarding confidentiality. To make sure that this research is being carried out in the proper way, the Georgia Institute of Technology IRB may review study records. The Office of Human Research Protections may also look at study records.</p>
	                <p>Efforts will be made to limit the use and disclosure of your personal information, including research study records, to people who need to review this information. We cannot promise complete secrecy. Organizations that may inspect and copy your information include the IRB and other representatives of this institution. Please be notified that our data privacy policy is based on U.S. regulations. Participants who are out of the U.S. might be excluded due to different data privacy requirements.</p>
	                <p><strong>Data Sharing:</strong> De-identified data from this study will be shared among the GATech research team, as well as the research community at large to advance science and health. We will remove or code any personal information that could identify you before files are shared with other researchers to ensure that, by current scientific standards and known methods, no one will be able to identify you from the information we share. Despite these measures, we cannot guarantee the anonymity of your personal data.</p>

	                <h3>WILL I BE GIVEN ANY MONEY OR OTHER COMPENSATION FOR BEING IN THIS RESEARCH STUDY?</h3>
	                <p>If you agree to take part in this research study, we will provide compensation. You will be paid in accordance with the stated policies of Amazon Mechanical Turk and/or Prolific.com. Payment will be made upon completion and acceptance of tasks that you have agreed to complete and you will be paid via Mechanical Turk or Prolific.com. If you choose to withdraw from the study, you will not be compensated for your participation.</p>

	                <h3>WHAT ELSE DO I NEED TO KNOW?</h3>
	                <p>We might be using attention check questions in our surveys. If you miss 2 or more attention check questions, your HIT will not be accepted and you will not be compensated.</p>

	                <h3>WHO CAN I TALK TO IF I HAVE QUESTIONS?</h3>
	                <p>If you have any questions about the content of this research project, you may contact Dr. Cindy Xiong Bearfield at cxiong@gatech.edu, or contact Songwen Hu at shu343@gatech.edu. If you have any questions about your rights as a research subject, you may also contact Georgia Institute of Technology Office of Research Integrity Assurance at IRB@gatech.edu.</p>

	                <h3>WHAT HAPPENS IF I SAY YES, BUT I CHANGE MY MIND LATER?</h3>
	                <p>You can decide not to participate in this research or you can start and then decide to leave the research at any time and it will not be held against you. To do so, simply exit the experiment. Any data already collected will not be saved.</p>

	                <p><strong>By clicking ""I agree"" below you are indicating that you are at least 18 years old, currently in the U.S., have read this consent form, and agree to participate in this research study. Please print a copy of this page for your records.</strong></p>
	            </div>
	        </div>
	    ",2759,,,,,,1,html-button-response,,,,,,
,,,,,,,,,,,,,,0.0-2.0,,,,,,,,,0,,,789,,,,"
	        <div class=""vis-literacy-intro"">
	            <h2>Visualization Assessment</h2>
	            <p>Before we begin the main study, we'd like to assess your ability to read and interpret data visualizations.</p>
	            
	            <div class=""assessment-info"">
	                <h3>What you'll do:</h3>
	                <ul>
	                    <li>View 12 different data visualizations (charts and graphs)</li>
	                    <li>Answer questions about what each visualization shows</li>
	                    <li>Take your time to examine each chart carefully</li>
	                </ul>
	                
	                <p><strong>This assessment will take approximately 5-10 minutes.</strong></p>
	                <p>There are no right or wrong interpretations - we're interested in how you read visualizations.</p>
	            </div>
	        </div>
	    ",3549,,,,,,2,html-button-response,,,,,,
,,,,,condition_7_buggy,Buggy Control,,,,,,,,0.0-3.0,,33,,,,,,,,"[{""question_id"":""minivlat_1"",""question_type"":""line_chart"",""question_text"":""What was the price range of a barrel of oil in 2020?"",""response"":3,""correct_answer"":0,""is_correct"":false,""rt"":3203.600000023842},{""question_id"":""minivlat_2"",""question_type"":""bar_chart"",""question_text"":""What is the range of the average internet speed in Asia?"",""response"":3,""correct_answer"":3,""is_correct"":true,""rt"":822.3999999761581},{""question_id"":""minivlat_3"",""question_type"":""stacked_bar"",""question_text"":""What is the cost of peanuts in Las Vegas?"",""response"":3,""correct_answer"":1,""is_correct"":false,""rt"":910.6000000238419},{""question_id"":""minivlat_4"",""question_type"":""stacked_100_bar"",""question_text"":""What is the approval rating of Republicans among postgraduate-educated people?"",""response"":3,""correct_answer"":1,""is_correct"":false,""rt"":780.5},{""question_id"":""minivlat_5"",""question_type"":""pie_chart"",""question_text"":""About what is the global smartphone market share of Samsung?"",""response"":3,""correct_answer"":1,""is_correct"":false,""rt"":1284.199999988079},{""question_id"":""minivlat_6"",""question_type"":""histogram"",""question_text"":""How many people have rated the taxi between 4.2 and 4.4?"",""response"":3,""correct_answer"":1,""is_correct"":false,""rt"":866.8000000119209},{""question_id"":""minivlat_7"",""question_type"":""scatter_plot"",""question_text"":""There is a negative linear relationship between the height and the weight of the 85 males."",""response"":1,""correct_answer"":1,""is_correct"":true,""rt"":1065},{""question_id"":""minivlat_8"",""question_type"":""area_chart"",""question_text"":""What was the average price of a pound of coffee beans in September 2013?"",""response"":2,""correct_answer"":0,""is_correct"":false,""rt"":913.5999999642372},{""question_id"":""minivlat_9"",""question_type"":""stacked_area"",""question_text"":""What was the number of girls named 'Olivia' in 2010 in the UK?"",""response"":2,""correct_answer"":2,""is_correct"":true,""rt"":926.9000000357628},{""question_id"":""minivlat_10"",""question_type"":""bubble_chart"",""question_text"":""What is the total length of the metro system in Beijing?"",""response"":3,""correct_answer"":0,""is_correct"":false,""rt"":923.1999999880791},{""question_id"":""minivlat_11"",""question_type"":""choropleth"",""question_text"":""In 2015, the unemployment rate for Washington (WA) was higher than that of Wisconsin (WI)."",""response"":1,""correct_answer"":0,""is_correct"":false,""rt"":900.3000000119209},{""question_id"":""minivlat_12"",""question_type"":""bubble_chart_multi"",""question_text"":""For which website was the number of unique visitors the largest in 2010?"",""response"":3,""correct_answer"":3,""is_correct"":true,""rt"":1338.2999999523163}]",,,13935.399999976158,,,,17485,,,12,4,,3,vis-literacy,,,,,,
,,,,,,,,,,,,,,0.0-4.0,,,,,,,,,,,,1067,,,,,18552,,,,,,4,instructions,,,,"[{""page_index"":0,""viewing_time"":1066}]",,
2,3,,,,condition_0_historical,Historical Only,Somewhat Uncertain,3,,historical_only,,,"[{""type"":""chart_enter"",""data"":{""timestamp"":115.80000001192093},""timestamp"":115.89999997615814},{""type"":""chart_hover"",""data"":{""x"":791,""y"":425,""timestamp"":690.1000000238419},""timestamp"":690.1000000238419},{""type"":""chart_hover"",""data"":{""x"":790,""y"":425,""timestamp"":701.6999999880791},""timestamp"":701.6999999880791},{""type"":""chart_hover"",""data"":{""x"":789,""y"":425,""timestamp"":707.6999999880791},""timestamp"":707.8000000119209},{""type"":""chart_hover"",""data"":{""x"":787,""y"":425,""timestamp"":716.1000000238419},""timestamp"":716.1000000238419},{""type"":""chart_hover"",""data"":{""x"":786,""y"":425,""timestamp"":724.3000000119209},""timestamp"":724.3000000119209},{""type"":""chart_hover"",""data"":{""x"":786,""y"":425,""timestamp"":733.6000000238419},""timestamp"":733.6000000238419},{""type"":""chart_hover"",""data"":{""x"":785,""y"":425,""timestamp"":741.1999999880791},""timestamp"":741.1999999880791},{""type"":""chart_hover"",""data"":{""x"":784,""y"":425,""timestamp"":750.3999999761581},""timestamp"":750.3999999761581},{""type"":""chart_hover"",""data"":{""x"":783,""y"":425,""timestamp"":757.6999999880791},""timestamp"":757.6999999880791},{""type"":""chart_hover"",""data"":{""x"":782,""y"":425,""timestamp"":767.1000000238419},""timestamp"":767.1000000238419},{""type"":""chart_hover"",""data"":{""x"":781,""y"":425,""timestamp"":773.6999999880791},""timestamp"":773.6999999880791},{""type"":""chart_hover"",""data"":{""x"":779,""y"":424,""timestamp"":782.8000000119209},""timestamp"":782.8000000119209},{""type"":""chart_hover"",""data"":{""x"":778,""y"":424,""timestamp"":792.1000000238419},""timestamp"":792.1000000238419},{""type"":""chart_hover"",""data"":{""x"":774,""y"":424,""timestamp"":799.3999999761581},""timestamp"":799.3999999761581},{""type"":""chart_hover"",""data"":{""x"":771,""y"":424,""timestamp"":807.6000000238419},""timestamp"":807.6000000238419},{""type"":""chart_hover"",""data"":{""x"":767,""y"":424,""timestamp"":816},""timestamp"":816},{""type"":""chart_hover"",""data"":{""x"":764,""y"":424,""timestamp"":824.8000000119209},""timestamp"":824.8000000119209},{""type"":""chart_hover"",""data"":{""x"":759,""y"":424,""timestamp"":832.6999999880791},""timestamp"":832.6999999880791},{""type"":""chart_hover"",""data"":{""x"":754,""y"":424,""timestamp"":841.3000000119209},""timestamp"":841.3000000119209},{""type"":""chart_hover"",""data"":{""x"":747,""y"":424,""timestamp"":849.1000000238419},""timestamp"":849.1000000238419},{""type"":""chart_hover"",""data"":{""x"":736,""y"":425,""timestamp"":857.5},""timestamp"":857.5},{""type"":""chart_hover"",""data"":{""x"":719,""y"":426,""timestamp"":865.8000000119209},""timestamp"":865.8000000119209},{""type"":""chart_hover"",""data"":{""x"":697,""y"":427,""timestamp"":874.1000000238419},""timestamp"":874.1000000238419},{""type"":""chart_hover"",""data"":{""x"":667,""y"":428,""timestamp"":882.5},""timestamp"":882.5},{""type"":""chart_hover"",""data"":{""x"":624,""y"":429,""timestamp"":890.8999999761581},""timestamp"":890.8999999761581},{""type"":""chart_hover"",""data"":{""x"":562,""y"":430,""timestamp"":899.3999999761581},""timestamp"":899.3999999761581},{""type"":""chart_hover"",""data"":{""x"":493,""y"":431,""timestamp"":907.5},""timestamp"":907.5},{""type"":""chart_hover"",""data"":{""x"":430,""y"":432,""timestamp"":915.3000000119209},""timestamp"":915.3000000119209},{""type"":""chart_hover"",""data"":{""x"":344,""y"":433,""timestamp"":925},""timestamp"":925},{""type"":""chart_hover"",""data"":{""x"":274,""y"":433,""timestamp"":933.6999999880791},""timestamp"":933.6999999880791},{""type"":""chart_hover"",""data"":{""x"":214,""y"":433,""timestamp"":941.1000000238419},""timestamp"":941.1000000238419},{""type"":""chart_hover"",""data"":{""x"":158,""y"":431,""timestamp"":949.1000000238419},""timestamp"":949.1000000238419},{""type"":""chart_leave"",""data"":{""timestamp"":957.3000000119209},""timestamp"":957.3000000119209},{""type"":""chart_enter"",""data"":{""timestamp"":1111.699999988079},""timestamp"":1111.699999988079},{""type"":""chart_hover"",""data"":{""x"":175,""y"":247,""timestamp"":1111.699999988079},""timestamp"":1111.699999988079},{""type"":""chart_hover"",""data"":{""x"":212,""y"":236,""timestamp"":1120.1000000238419},""timestamp"":1120.1000000238419},{""type"":""chart_hover"",""data"":{""x"":254,""y"":224,""timestamp"":1128.3999999761581},""timestamp"":1128.3999999761581},{""type"":""chart_hover"",""data"":{""x"":298,""y"":214,""timestamp"":1136.699999988079},""timestamp"":1136.699999988079},{""type"":""chart_hover"",""data"":{""x"":343,""y"":204,""timestamp"":1145.1000000238419},""timestamp"":1145.1000000238419},{""type"":""chart_hover"",""data"":{""x"":384,""y"":196,""timestamp"":1152.8999999761581},""timestamp"":1152.8999999761581},{""type"":""chart_hover"",""data"":{""x"":424,""y"":190,""timestamp"":1161.199999988079},""timestamp"":1161.199999988079},{""type"":""chart_hover"",""data"":{""x"":465,""y"":185,""timestamp"":1170.199999988079},""timestamp"":1170.199999988079},{""type"":""chart_hover"",""data"":{""x"":503,""y"":182,""timestamp"":1178.3999999761581},""timestamp"":1178.3999999761581},{""type"":""chart_hover"",""data"":{""x"":538,""y"":180,""timestamp"":1186.199999988079},""timestamp"":1186.199999988079},{""type"":""chart_hover"",""data"":{""x"":576,""y"":179,""timestamp"":1195.1000000238419},""timestamp"":1195.1000000238419},{""type"":""chart_hover"",""data"":{""x"":609,""y"":180,""timestamp"":1202.800000011921},""timestamp"":1202.8999999761581},{""type"":""chart_hover"",""data"":{""x"":645,""y"":182,""timestamp"":1211.800000011921},""timestamp"":1211.800000011921},{""type"":""chart_hover"",""data"":{""x"":679,""y"":185,""timestamp"":1220},""timestamp"":1220},{""type"":""chart_hover"",""data"":{""x"":711,""y"":189,""timestamp"":1228.3999999761581},""timestamp"":1228.3999999761581},{""type"":""chart_hover"",""data"":{""x"":740,""y"":194,""timestamp"":1236.199999988079},""timestamp"":1236.199999988079},{""type"":""chart_hover"",""data"":{""x"":769,""y"":200,""timestamp"":1245.1000000238419},""timestamp"":1245.1000000238419},{""type"":""chart_hover"",""data"":{""x"":794,""y"":206,""timestamp"":1253.300000011921},""timestamp"":1253.300000011921},{""type"":""chart_hover"",""data"":{""x"":815,""y"":212,""timestamp"":1261.699999988079},""timestamp"":1261.699999988079},{""type"":""chart_hover"",""data"":{""x"":832,""y"":218,""timestamp"":1270.1000000238419},""timestamp"":1270.1000000238419},{""type"":""chart_hover"",""data"":{""x"":843,""y"":223,""timestamp"":1277.800000011921},""timestamp"":1277.800000011921},{""type"":""chart_hover"",""data"":{""x"":851,""y"":228,""timestamp"":1286.800000011921},""timestamp"":1286.800000011921},{""type"":""chart_hover"",""data"":{""x"":857,""y"":232,""timestamp"":1295},""timestamp"":1295},{""type"":""chart_hover"",""data"":{""x"":861,""y"":237,""timestamp"":1303.3999999761581},""timestamp"":1303.3999999761581},{""type"":""chart_hover"",""data"":{""x"":862,""y"":240,""timestamp"":1311.699999988079},""timestamp"":1311.699999988079},{""type"":""chart_hover"",""data"":{""x"":862,""y"":244,""timestamp"":1320.1000000238419},""timestamp"":1320.1000000238419},{""type"":""chart_hover"",""data"":{""x"":861,""y"":246,""timestamp"":1328.300000011921},""timestamp"":1328.300000011921},{""type"":""chart_hover"",""data"":{""x"":859,""y"":250,""timestamp"":1336.699999988079},""timestamp"":1336.699999988079},{""type"":""chart_hover"",""data"":{""x"":853,""y"":253,""timestamp"":1345},""timestamp"":1345},{""type"":""chart_hover"",""data"":{""x"":844,""y"":257,""timestamp"":1353.300000011921},""timestamp"":1353.300000011921},{""type"":""chart_hover"",""data"":{""x"":834,""y"":259,""timestamp"":1360.800000011921},""timestamp"":1360.800000011921},{""type"":""chart_hover"",""data"":{""x"":823,""y"":263,""timestamp"":1370.1000000238419},""timestamp"":1370.199999988079},{""type"":""chart_hover"",""data"":{""x"":814,""y"":266,""timestamp"":1378.699999988079},""timestamp"":1378.699999988079},{""type"":""chart_hover"",""data"":{""x"":806,""y"":270,""timestamp"":1386.699999988079},""timestamp"":1386.699999988079},{""type"":""chart_hover"",""data"":{""x"":798,""y"":273,""timestamp"":1395.300000011921},""timestamp"":1395.300000011921},{""type"":""chart_hover"",""data"":{""x"":791,""y"":275,""timestamp"":1403.3999999761581},""timestamp"":1403.3999999761581},{""type"":""chart_hover"",""data"":{""x"":782,""y"":279,""timestamp"":1411.8999999761581},""timestamp"":1411.8999999761581},{""type"":""chart_hover"",""data"":{""x"":775,""y"":281,""timestamp"":1420},""timestamp"":1420},{""type"":""chart_hover"",""data"":{""x"":769,""y"":283,""timestamp"":1428.3999999761581},""timestamp"":1428.3999999761581},{""type"":""chart_hover"",""data"":{""x"":763,""y"":285,""timestamp"":1436.6000000238419},""timestamp"":1436.6000000238419},{""type"":""chart_hover"",""data"":{""x"":758,""y"":287,""timestamp"":1444.8999999761581},""timestamp"":1444.8999999761581},{""type"":""chart_hover"",""data"":{""x"":753,""y"":288,""timestamp"":1453.300000011921},""timestamp"":1453.300000011921},{""type"":""chart_hover"",""data"":{""x"":747,""y"":289,""timestamp"":1461.6000000238419},""timestamp"":1461.6000000238419},{""type"":""chart_hover"",""data"":{""x"":742,""y"":290,""timestamp"":1470},""timestamp"":1470},{""type"":""chart_hover"",""data"":{""x"":736,""y"":292,""timestamp"":1478.3999999761581},""timestamp"":1478.3999999761581},{""type"":""chart_hover"",""data"":{""x"":731,""y"":292,""timestamp"":1486.6000000238419},""timestamp"":1486.6000000238419},{""type"":""chart_hover"",""data"":{""x"":727,""y"":293,""timestamp"":1494.8999999761581},""timestamp"":1494.8999999761581},{""type"":""chart_hover"",""data"":{""x"":723,""y"":294,""timestamp"":1503.199999988079},""timestamp"":1503.199999988079},{""type"":""chart_hover"",""data"":{""x"":721,""y"":294,""timestamp"":1511.699999988079},""timestamp"":1511.699999988079},{""type"":""chart_hover"",""data"":{""x"":719,""y"":295,""timestamp"":1519.8999999761581},""timestamp"":1519.8999999761581},{""type"":""chart_hover"",""data"":{""x"":718,""y"":295,""timestamp"":1531.699999988079},""timestamp"":1531.699999988079},{""type"":""chart_hover"",""data"":{""x"":717,""y"":295,""timestamp"":1544.800000011921},""timestamp"":1544.800000011921},{""type"":""chart_hover"",""data"":{""x"":717,""y"":296,""timestamp"":1592.6000000238419},""timestamp"":1592.6000000238419},{""type"":""chart_hover"",""data"":{""x"":716,""y"":297,""timestamp"":1611.6000000238419},""timestamp"":1611.6000000238419},{""type"":""chart_hover"",""data"":{""x"":715,""y"":297,""timestamp"":1619.8999999761581},""timestamp"":1619.8999999761581},{""type"":""chart_hover"",""data"":{""x"":714,""y"":297,""timestamp"":1628.199999988079},""timestamp"":1628.199999988079},{""type"":""chart_hover"",""data"":{""x"":714,""y"":297,""timestamp"":1669.1000000238419},""timestamp"":1669.1000000238419},{""type"":""chart_hover"",""data"":{""x"":714,""y"":298,""timestamp"":1688.800000011921},""timestamp"":1688.800000011921},{""type"":""chart_hover"",""data"":{""x"":713,""y"":298,""timestamp"":1695.300000011921},""timestamp"":1695.300000011921},{""type"":""chart_hover"",""data"":{""x"":712,""y"":298,""timestamp"":1720.199999988079},""timestamp"":1720.199999988079},{""type"":""chart_hover"",""data"":{""x"":711,""y"":299,""timestamp"":1728.3999999761581},""timestamp"":1728.3999999761581},{""type"":""chart_hover"",""data"":{""x"":709,""y"":299,""timestamp"":1736.800000011921},""timestamp"":1736.800000011921},{""type"":""chart_hover"",""data"":{""x"":708,""y"":300,""timestamp"":1745.199999988079},""timestamp"":1745.199999988079},{""type"":""chart_hover"",""data"":{""x"":707,""y"":300,""timestamp"":1753.3999999761581},""timestamp"":1753.3999999761581},{""type"":""chart_hover"",""data"":{""x"":707,""y"":301,""timestamp"":2181.300000011921},""timestamp"":2181.300000011921},{""type"":""chart_hover"",""data"":{""x"":705,""y"":306,""timestamp"":2186.399999976158},""timestamp"":2186.399999976158},{""type"":""chart_hover"",""data"":{""x"":702,""y"":310,""timestamp"":2195},""timestamp"":2195},{""type"":""chart_hover"",""data"":{""x"":700,""y"":312,""timestamp"":2203.5},""timestamp"":2203.5},{""type"":""chart_hover"",""data"":{""x"":696,""y"":319,""timestamp"":2213.699999988079},""timestamp"":2213.699999988079},{""type"":""chart_hover"",""data"":{""x"":693,""y"":323,""timestamp"":2219.699999988079},""timestamp"":2219.699999988079},{""type"":""chart_hover"",""data"":{""x"":691,""y"":326,""timestamp"":2231.300000011921},""timestamp"":2231.300000011921},{""type"":""chart_leave"",""data"":{""timestamp"":2778.5},""timestamp"":2778.5},{""type"":""chart_enter"",""data"":{""timestamp"":3616.699999988079},""timestamp"":3616.699999988079},{""type"":""chart_hover"",""data"":{""x"":713,""y"":316,""timestamp"":3616.800000011921},""timestamp"":3616.800000011921},{""type"":""chart_hover"",""data"":{""x"":715,""y"":317,""timestamp"":3626.699999988079},""timestamp"":3626.699999988079},{""type"":""chart_hover"",""data"":{""x"":719,""y"":317,""timestamp"":3635.199999988079},""timestamp"":3635.199999988079},{""type"":""chart_hover"",""data"":{""x"":724,""y"":319,""timestamp"":3643.199999988079},""timestamp"":3643.300000011921},{""type"":""chart_hover"",""data"":{""x"":725,""y"":319,""timestamp"":3652.399999976158},""timestamp"":3652.399999976158},{""type"":""chart_hover"",""data"":{""x"":733,""y"":320,""timestamp"":3660.699999988079},""timestamp"":3660.699999988079},{""type"":""chart_hover"",""data"":{""x"":737,""y"":321,""timestamp"":3669.100000023842},""timestamp"":3669.100000023842},{""type"":""chart_hover"",""data"":{""x"":742,""y"":321,""timestamp"":3677.600000023842},""timestamp"":3677.600000023842},{""type"":""chart_hover"",""data"":{""x"":747,""y"":321,""timestamp"":3685.800000011921},""timestamp"":3685.800000011921},{""type"":""chart_hover"",""data"":{""x"":750,""y"":322,""timestamp"":3694.100000023842},""timestamp"":3694.100000023842},{""type"":""chart_hover"",""data"":{""x"":753,""y"":322,""timestamp"":3701.5},""timestamp"":3701.5},{""type"":""chart_hover"",""data"":{""x"":756,""y"":322,""timestamp"":3710.899999976158},""timestamp"":3710.899999976158},{""type"":""chart_hover"",""data"":{""x"":758,""y"":322,""timestamp"":3718.100000023842},""timestamp"":3718.100000023842},{""type"":""chart_hover"",""data"":{""x"":760,""y"":322,""timestamp"":3727.5},""timestamp"":3727.5},{""type"":""chart_hover"",""data"":{""x"":761,""y"":322,""timestamp"":3734.800000011921},""timestamp"":3734.800000011921},{""type"":""chart_hover"",""data"":{""x"":762,""y"":322,""timestamp"":3776.699999988079},""timestamp"":3776.699999988079},{""type"":""chart_hover"",""data"":{""x"":764,""y"":322,""timestamp"":3784.600000023842},""timestamp"":3784.600000023842},{""type"":""chart_hover"",""data"":{""x"":765,""y"":322,""timestamp"":3793.199999988079},""timestamp"":3793.199999988079},{""type"":""chart_hover"",""data"":{""x"":767,""y"":322,""timestamp"":3802.5},""timestamp"":3802.5},{""type"":""chart_hover"",""data"":{""x"":768,""y"":323,""timestamp"":3807.699999988079},""timestamp"":3807.699999988079},{""type"":""chart_hover"",""data"":{""x"":770,""y"":324,""timestamp"":3816.100000023842},""timestamp"":3816.100000023842},{""type"":""chart_hover"",""data"":{""x"":770,""y"":325,""timestamp"":3824.399999976158},""timestamp"":3824.399999976158},{""type"":""chart_hover"",""data"":{""x"":771,""y"":326,""timestamp"":3832.600000023842},""timestamp"":3832.600000023842},{""type"":""chart_hover"",""data"":{""x"":773,""y"":327,""timestamp"":3841},""timestamp"":3841},{""type"":""chart_hover"",""data"":{""x"":774,""y"":328,""timestamp"":3849.300000011921},""timestamp"":3849.300000011921},{""type"":""chart_hover"",""data"":{""x"":775,""y"":329,""timestamp"":3866},""timestamp"":3866},{""type"":""chart_hover"",""data"":{""x"":776,""y"":329,""timestamp"":3874.300000011921},""timestamp"":3874.300000011921},{""type"":""chart_hover"",""data"":{""x"":777,""y"":329,""timestamp"":4037.199999988079},""timestamp"":4037.199999988079},{""type"":""chart_hover"",""data"":{""x"":777,""y"":329,""timestamp"":4044.600000023842},""timestamp"":4044.600000023842},{""type"":""chart_hover"",""data"":{""x"":778,""y"":329,""timestamp"":4049.699999988079},""timestamp"":4049.699999988079},{""type"":""chart_hover"",""data"":{""x"":780,""y"":329,""timestamp"":4057.800000011921},""timestamp"":4057.899999976158},{""type"":""chart_hover"",""data"":{""x"":783,""y"":329,""timestamp"":4066.199999988079},""timestamp"":4066.199999988079},{""type"":""chart_hover"",""data"":{""x"":785,""y"":330,""timestamp"":4074.300000011921},""timestamp"":4074.300000011921},{""type"":""chart_hover"",""data"":{""x"":788,""y"":331,""timestamp"":4082.5},""timestamp"":4082.5},{""type"":""chart_hover"",""data"":{""x"":791,""y"":333,""timestamp"":4091.100000023842},""timestamp"":4091.100000023842},{""type"":""chart_hover"",""data"":{""x"":794,""y"":336,""timestamp"":4099.199999988079},""timestamp"":4099.199999988079},{""type"":""chart_hover"",""data"":{""x"":798,""y"":341,""timestamp"":4107.600000023842},""timestamp"":4107.600000023842},{""type"":""chart_hover"",""data"":{""x"":801,""y"":347,""timestamp"":4115.800000011921},""timestamp"":4115.800000011921},{""type"":""chart_hover"",""data"":{""x"":805,""y"":353,""timestamp"":4124.199999988079},""timestamp"":4124.199999988079},{""type"":""chart_hover"",""data"":{""x"":810,""y"":360,""timestamp"":4132.5},""timestamp"":4132.5},{""type"":""chart_hover"",""data"":{""x"":814,""y"":367,""timestamp"":4140.800000011921},""timestamp"":4140.800000011921},{""type"":""chart_hover"",""data"":{""x"":818,""y"":375,""timestamp"":4149.600000023842},""timestamp"":4149.600000023842},{""type"":""chart_hover"",""data"":{""x"":819,""y"":381,""timestamp"":4157.399999976158},""timestamp"":4157.399999976158},{""type"":""chart_hover"",""data"":{""x"":819,""y"":386,""timestamp"":4166.899999976158},""timestamp"":4166.899999976158},{""type"":""chart_hover"",""data"":{""x"":819,""y"":391,""timestamp"":4174.100000023842},""timestamp"":4174.100000023842},{""type"":""chart_hover"",""data"":{""x"":814,""y"":396,""timestamp"":4182.5},""timestamp"":4182.5},{""type"":""chart_hover"",""data"":{""x"":807,""y"":400,""timestamp"":4190.800000011921},""timestamp"":4190.800000011921},{""type"":""chart_hover"",""data"":{""x"":799,""y"":403,""timestamp"":4199.100000023842},""timestamp"":4199.100000023842},{""type"":""chart_hover"",""data"":{""x"":789,""y"":406,""timestamp"":4207.5},""timestamp"":4207.5},{""type"":""chart_hover"",""data"":{""x"":777,""y"":408,""timestamp"":4216.199999988079},""timestamp"":4216.199999988079},{""type"":""chart_hover"",""data"":{""x"":769,""y"":409,""timestamp"":4224.100000023842},""timestamp"":4224.100000023842},{""type"":""chart_hover"",""data"":{""x"":762,""y"":411,""timestamp"":4232.399999976158},""timestamp"":4232.399999976158},{""type"":""chart_hover"",""data"":{""x"":756,""y"":411,""timestamp"":4240.800000011921},""timestamp"":4240.800000011921},{""type"":""chart_hover"",""data"":{""x"":751,""y"":411,""timestamp"":4249.100000023842},""timestamp"":4249.100000023842},{""type"":""chart_hover"",""data"":{""x"":749,""y"":411,""timestamp"":4257.5},""timestamp"":4257.5},{""type"":""chart_hover"",""data"":{""x"":746,""y"":409,""timestamp"":4265.899999976158},""timestamp"":4265.899999976158},{""type"":""chart_hover"",""data"":{""x"":744,""y"":407,""timestamp"":4274.199999988079},""timestamp"":4274.199999988079},{""type"":""chart_hover"",""data"":{""x"":743,""y"":405,""timestamp"":4282.399999976158},""timestamp"":4282.399999976158},{""type"":""chart_hover"",""data"":{""x"":743,""y"":403,""timestamp"":4290.800000011921},""timestamp"":4290.800000011921},{""type"":""chart_hover"",""data"":{""x"":744,""y"":401,""timestamp"":4299.100000023842},""timestamp"":4299.100000023842},{""type"":""chart_hover"",""data"":{""x"":746,""y"":400,""timestamp"":4307.399999976158},""timestamp"":4307.399999976158},{""type"":""chart_hover"",""data"":{""x"":749,""y"":399,""timestamp"":4315.699999988079},""timestamp"":4315.699999988079},{""type"":""chart_hover"",""data"":{""x"":753,""y"":398,""timestamp"":4324.100000023842},""timestamp"":4324.100000023842},{""type"":""chart_hover"",""data"":{""x"":759,""y"":398,""timestamp"":4332.5},""timestamp"":4332.5},{""type"":""chart_hover"",""data"":{""x"":763,""y"":398,""timestamp"":4340.800000011921},""timestamp"":4340.800000011921},{""type"":""chart_hover"",""data"":{""x"":769,""y"":399,""timestamp"":4349.100000023842},""timestamp"":4349.100000023842},{""type"":""chart_hover"",""data"":{""x"":772,""y"":402,""timestamp"":4357.399999976158},""timestamp"":4357.399999976158},{""type"":""chart_hover"",""data"":{""x"":777,""y"":406,""timestamp"":4366.600000023842},""timestamp"":4366.600000023842},{""type"":""chart_hover"",""data"":{""x"":778,""y"":408,""timestamp"":4374.100000023842},""timestamp"":4374.100000023842},{""type"":""chart_hover"",""data"":{""x"":780,""y"":413,""timestamp"":4382.5},""timestamp"":4382.5},{""type"":""chart_hover"",""data"":{""x"":780,""y"":417,""timestamp"":4391.899999976158},""timestamp"":4391.899999976158},{""type"":""chart_hover"",""data"":{""x"":777,""y"":421,""timestamp"":4399.300000011921},""timestamp"":4399.300000011921},{""type"":""chart_hover"",""data"":{""x"":770,""y"":425,""timestamp"":4407.600000023842},""timestamp"":4407.600000023842},{""type"":""chart_hover"",""data"":{""x"":761,""y"":428,""timestamp"":4415.800000011921},""timestamp"":4415.800000011921},{""type"":""chart_hover"",""data"":{""x"":750,""y"":432,""timestamp"":4424.100000023842},""timestamp"":4424.100000023842},{""type"":""chart_hover"",""data"":{""x"":734,""y"":434,""timestamp"":4432.399999976158},""timestamp"":4432.399999976158},{""type"":""chart_hover"",""data"":{""x"":717,""y"":437,""timestamp"":4441.100000023842},""timestamp"":4441.100000023842},{""type"":""chart_hover"",""data"":{""x"":704,""y"":439,""timestamp"":4449.100000023842},""timestamp"":4449.100000023842},{""type"":""chart_hover"",""data"":{""x"":692,""y"":440,""timestamp"":4457.399999976158},""timestamp"":4457.399999976158},{""type"":""chart_hover"",""data"":{""x"":682,""y"":440,""timestamp"":4465.699999988079},""timestamp"":4465.699999988079},{""type"":""chart_hover"",""data"":{""x"":677,""y"":438,""timestamp"":4474.100000023842},""timestamp"":4474.100000023842},{""type"":""chart_hover"",""data"":{""x"":674,""y"":435,""timestamp"":4482.399999976158},""timestamp"":4482.399999976158},{""type"":""chart_hover"",""data"":{""x"":672,""y"":431,""timestamp"":4490.800000011921},""timestamp"":4490.800000011921},{""type"":""chart_hover"",""data"":{""x"":672,""y"":425,""timestamp"":4499.100000023842},""timestamp"":4499.100000023842},{""type"":""chart_hover"",""data"":{""x"":674,""y"":417,""timestamp"":4507.399999976158},""timestamp"":4507.399999976158},{""type"":""chart_hover"",""data"":{""x"":678,""y"":408,""timestamp"":4515.800000011921},""timestamp"":4515.800000011921},{""type"":""chart_hover"",""data"":{""x"":683,""y"":399,""timestamp"":4524.100000023842},""timestamp"":4524.100000023842},{""type"":""chart_hover"",""data"":{""x"":688,""y"":391,""timestamp"":4532.600000023842},""timestamp"":4532.600000023842},{""type"":""chart_hover"",""data"":{""x"":697,""y"":384,""timestamp"":4540.800000011921},""timestamp"":4540.800000011921},{""type"":""chart_hover"",""data"":{""x"":707,""y"":379,""timestamp"":4549.100000023842},""timestamp"":4549.100000023842},{""type"":""chart_hover"",""data"":{""x"":716,""y"":377,""timestamp"":4557.399999976158},""timestamp"":4557.399999976158},{""type"":""chart_hover"",""data"":{""x"":728,""y"":374,""timestamp"":4565.699999988079},""timestamp"":4565.699999988079},{""type"":""chart_hover"",""data"":{""x"":737,""y"":373,""timestamp"":4574.100000023842},""timestamp"":4574.100000023842},{""type"":""chart_hover"",""data"":{""x"":747,""y"":373,""timestamp"":4582.5},""timestamp"":4582.5},{""type"":""chart_hover"",""data"":{""x"":755,""y"":376,""timestamp"":4590.800000011921},""timestamp"":4590.800000011921},{""type"":""chart_hover"",""data"":{""x"":762,""y"":378,""timestamp"":4599.100000023842},""timestamp"":4599.100000023842},{""type"":""chart_hover"",""data"":{""x"":765,""y"":382,""timestamp"":4607.399999976158},""timestamp"":4607.399999976158},{""type"":""chart_hover"",""data"":{""x"":768,""y"":385,""timestamp"":4615.800000011921},""timestamp"":4615.800000011921},{""type"":""chart_hover"",""data"":{""x"":769,""y"":391,""timestamp"":4624.100000023842},""timestamp"":4624.100000023842},{""type"":""chart_hover"",""data"":{""x"":769,""y"":394,""timestamp"":4632.5},""timestamp"":4632.5},{""type"":""chart_hover"",""data"":{""x"":769,""y"":399,""timestamp"":4640.800000011921},""timestamp"":4640.800000011921},{""type"":""chart_hover"",""data"":{""x"":766,""y"":403,""timestamp"":4649.100000023842},""timestamp"":4649.100000023842},{""type"":""chart_hover"",""data"":{""x"":763,""y"":406,""timestamp"":4657.5},""timestamp"":4657.5},{""type"":""chart_hover"",""data"":{""x"":760,""y"":409,""timestamp"":4665.699999988079},""timestamp"":4665.699999988079},{""type"":""chart_hover"",""data"":{""x"":756,""y"":412,""timestamp"":4674.5},""timestamp"":4674.5},{""type"":""chart_hover"",""data"":{""x"":754,""y"":413,""timestamp"":4682.5},""timestamp"":4682.5},{""type"":""chart_hover"",""data"":{""x"":751,""y"":413,""timestamp"":4691.800000011921},""timestamp"":4691.800000011921},{""type"":""chart_hover"",""data"":{""x"":750,""y"":413,""timestamp"":4699.100000023842},""timestamp"":4699.100000023842},{""type"":""chart_hover"",""data"":{""x"":751,""y"":413,""timestamp"":4747.899999976158},""timestamp"":4747.899999976158},{""type"":""chart_hover"",""data"":{""x"":752,""y"":413,""timestamp"":4751.5},""timestamp"":4751.5},{""type"":""chart_hover"",""data"":{""x"":753,""y"":413,""timestamp"":4757.399999976158},""timestamp"":4757.399999976158},{""type"":""chart_hover"",""data"":{""x"":757,""y"":412,""timestamp"":4765.800000011921},""timestamp"":4765.800000011921},{""type"":""chart_hover"",""data"":{""x"":763,""y"":412,""timestamp"":4774.199999988079},""timestamp"":4774.199999988079},{""type"":""chart_hover"",""data"":{""x"":768,""y"":412,""timestamp"":4782.800000011921},""timestamp"":4782.800000011921},{""type"":""chart_hover"",""data"":{""x"":773,""y"":412,""timestamp"":4790.800000011921},""timestamp"":4790.800000011921},{""type"":""chart_hover"",""data"":{""x"":778,""y"":412,""timestamp"":4799.800000011921},""timestamp"":4799.800000011921},{""type"":""chart_hover"",""data"":{""x"":783,""y"":413,""timestamp"":4807.5},""timestamp"":4807.5},{""type"":""chart_hover"",""data"":{""x"":790,""y"":413,""timestamp"":4815.899999976158},""timestamp"":4815.899999976158},{""type"":""chart_hover"",""data"":{""x"":796,""y"":415,""timestamp"":4824.199999988079},""timestamp"":4824.199999988079},{""type"":""chart_hover"",""data"":{""x"":802,""y"":417,""timestamp"":4832.399999976158},""timestamp"":4832.399999976158},{""type"":""chart_hover"",""data"":{""x"":809,""y"":419,""timestamp"":4840.800000011921},""timestamp"":4840.800000011921},{""type"":""chart_hover"",""data"":{""x"":813,""y"":420,""timestamp"":4849.100000023842},""timestamp"":4849.100000023842},{""type"":""chart_hover"",""data"":{""x"":819,""y"":422,""timestamp"":4857.399999976158},""timestamp"":4857.399999976158},{""type"":""chart_hover"",""data"":{""x"":823,""y"":424,""timestamp"":4865.800000011921},""timestamp"":4865.800000011921},{""type"":""chart_hover"",""data"":{""x"":826,""y"":426,""timestamp"":4874.100000023842},""timestamp"":4874.100000023842},{""type"":""chart_hover"",""data"":{""x"":830,""y"":427,""timestamp"":4883.399999976158},""timestamp"":4883.399999976158},{""type"":""chart_hover"",""data"":{""x"":832,""y"":428,""timestamp"":4889.899999976158},""timestamp"":4889.899999976158},{""type"":""chart_hover"",""data"":{""x"":834,""y"":429,""timestamp"":4899},""timestamp"":4899},{""type"":""chart_hover"",""data"":{""x"":835,""y"":430,""timestamp"":4907.5},""timestamp"":4907.5},{""type"":""chart_hover"",""data"":{""x"":836,""y"":430,""timestamp"":4915.800000011921},""timestamp"":4915.800000011921},{""type"":""chart_hover"",""data"":{""x"":839,""y"":430,""timestamp"":4940.899999976158},""timestamp"":4940.899999976158},{""type"":""chart_hover"",""data"":{""x"":843,""y"":430,""timestamp"":4949.100000023842},""timestamp"":4949.100000023842},{""type"":""chart_hover"",""data"":{""x"":848,""y"":428,""timestamp"":4957.5},""timestamp"":4957.5},{""type"":""chart_hover"",""data"":{""x"":853,""y"":427,""timestamp"":4965.800000011921},""timestamp"":4965.800000011921},{""type"":""chart_hover"",""data"":{""x"":856,""y"":426,""timestamp"":4974.100000023842},""timestamp"":4974.100000023842},{""type"":""chart_hover"",""data"":{""x"":860,""y"":423,""timestamp"":4982.5},""timestamp"":4982.5},{""type"":""chart_hover"",""data"":{""x"":864,""y"":420,""timestamp"":4990.800000011921},""timestamp"":4990.800000011921},{""type"":""chart_hover"",""data"":{""x"":867,""y"":418,""timestamp"":4999.100000023842},""timestamp"":4999.100000023842},{""type"":""chart_hover"",""data"":{""x"":869,""y"":416,""timestamp"":5007.800000011921},""timestamp"":5007.800000011921},{""type"":""chart_hover"",""data"":{""x"":871,""y"":414,""timestamp"":5015.899999976158},""timestamp"":5015.899999976158},{""type"":""chart_hover"",""data"":{""x"":872,""y"":413,""timestamp"":5025.399999976158},""timestamp"":5025.399999976158},{""type"":""chart_hover"",""data"":{""x"":876,""y"":411,""timestamp"":5032.600000023842},""timestamp"":5032.600000023842},{""type"":""chart_hover"",""data"":{""x"":879,""y"":409,""timestamp"":5041.100000023842},""timestamp"":5041.100000023842},{""type"":""chart_hover"",""data"":{""x"":880,""y"":408,""timestamp"":5049.100000023842},""timestamp"":5049.199999988079},{""type"":""chart_click"",""data"":{""x"":880,""y"":408,""timestamp"":5172.199999988079},""timestamp"":5172.199999988079},{""type"":""chart_hover"",""data"":{""x"":879,""y"":408,""timestamp"":5251.800000011921},""timestamp"":5251.800000011921},{""type"":""chart_hover"",""data"":{""x"":878,""y"":408,""timestamp"":5272.5},""timestamp"":5272.5},{""type"":""chart_hover"",""data"":{""x"":877,""y"":408,""timestamp"":5279.699999988079},""timestamp"":5279.699999988079},{""type"":""chart_hover"",""data"":{""x"":876,""y"":408,""timestamp"":5287.300000011921},""timestamp"":5287.300000011921},{""type"":""chart_hover"",""data"":{""x"":875,""y"":408,""timestamp"":5295.5},""timestamp"":5295.5},{""type"":""chart_hover"",""data"":{""x"":875,""y"":409,""timestamp"":5320.600000023842},""timestamp"":5320.600000023842},{""type"":""chart_hover"",""data"":{""x"":875,""y"":411,""timestamp"":5353.800000011921},""timestamp"":5353.800000011921},{""type"":""chart_hover"",""data"":{""x"":872,""y"":414,""timestamp"":5362},""timestamp"":5362},{""type"":""chart_hover"",""data"":{""x"":870,""y"":418,""timestamp"":5370.100000023842},""timestamp"":5370.100000023842},{""type"":""chart_hover"",""data"":{""x"":867,""y"":422,""timestamp"":5378.300000011921},""timestamp"":5378.300000011921},{""type"":""chart_hover"",""data"":{""x"":862,""y"":427,""timestamp"":5386.699999988079},""timestamp"":5386.699999988079},{""type"":""chart_hover"",""data"":{""x"":858,""y"":431,""timestamp"":5394.899999976158},""timestamp"":5394.899999976158},{""type"":""chart_hover"",""data"":{""x"":854,""y"":437,""timestamp"":5403.699999988079},""timestamp"":5403.699999988079},{""type"":""chart_hover"",""data"":{""x"":851,""y"":441,""timestamp"":5409.600000023842},""timestamp"":5409.600000023842},{""type"":""chart_hover"",""data"":{""x"":845,""y"":442,""timestamp"":5418.300000011921},""timestamp"":5418.300000011921},{""type"":""chart_hover"",""data"":{""x"":841,""y"":440,""timestamp"":5427},""timestamp"":5427},{""type"":""chart_hover"",""data"":{""x"":840,""y"":439,""timestamp"":5591},""timestamp"":5591},{""type"":""chart_hover"",""data"":{""x"":840,""y"":438,""timestamp"":5598.899999976158},""timestamp"":5598.899999976158},{""type"":""chart_hover"",""data"":{""x"":840,""y"":438,""timestamp"":5607.699999988079},""timestamp"":5607.699999988079},{""type"":""chart_hover"",""data"":{""x"":844,""y"":438,""timestamp"":5615.899999976158},""timestamp"":5615.899999976158},{""type"":""chart_hover"",""data"":{""x"":848,""y"":438,""timestamp"":5624.100000023842},""timestamp"":5624.100000023842},{""type"":""chart_hover"",""data"":{""x"":855,""y"":439,""timestamp"":5632.5},""timestamp"":5632.5},{""type"":""chart_hover"",""data"":{""x"":863,""y"":441,""timestamp"":5640.899999976158},""timestamp"":5640.899999976158},{""type"":""chart_hover"",""data"":{""x"":872,""y"":443,""timestamp"":5649.800000011921},""timestamp"":5649.800000011921},{""type"":""chart_hover"",""data"":{""x"":876,""y"":447,""timestamp"":5657.5},""timestamp"":5657.5},{""type"":""chart_hover"",""data"":{""x"":879,""y"":452,""timestamp"":5665.800000011921},""timestamp"":5665.800000011921},{""type"":""chart_hover"",""data"":{""x"":880,""y"":457,""timestamp"":5674.100000023842},""timestamp"":5674.100000023842},{""type"":""chart_hover"",""data"":{""x"":878,""y"":464,""timestamp"":5682.5},""timestamp"":5682.5},{""type"":""chart_hover"",""data"":{""x"":873,""y"":472,""timestamp"":5691.100000023842},""timestamp"":5691.100000023842},{""type"":""chart_hover"",""data"":{""x"":861,""y"":481,""timestamp"":5699.199999988079},""timestamp"":5699.199999988079},{""type"":""chart_hover"",""data"":{""x"":841,""y"":490,""timestamp"":5707.399999976158},""timestamp"":5707.399999976158},{""type"":""chart_hover"",""data"":{""x"":815,""y"":499,""timestamp"":5715.800000011921},""timestamp"":5715.800000011921},{""type"":""chart_hover"",""data"":{""x"":784,""y"":510,""timestamp"":5724.5},""timestamp"":5724.5},{""type"":""chart_hover"",""data"":{""x"":754,""y"":518,""timestamp"":5732.5},""timestamp"":5732.5},{""type"":""chart_hover"",""data"":{""x"":726,""y"":525,""timestamp"":5740.800000011921},""timestamp"":5740.800000011921},{""type"":""chart_hover"",""data"":{""x"":693,""y"":533,""timestamp"":5749.100000023842},""timestamp"":5749.100000023842},{""type"":""chart_hover"",""data"":{""x"":668,""y"":540,""timestamp"":5757.600000023842},""timestamp"":5757.600000023842},{""type"":""chart_hover"",""data"":{""x"":647,""y"":545,""timestamp"":5765.800000011921},""timestamp"":5765.800000011921},{""type"":""chart_hover"",""data"":{""x"":632,""y"":548,""timestamp"":5774.100000023842},""timestamp"":5774.100000023842},{""type"":""chart_hover"",""data"":{""x"":622,""y"":551,""timestamp"":5783.199999988079},""timestamp"":5783.199999988079},{""type"":""chart_hover"",""data"":{""x"":619,""y"":551,""timestamp"":5790.800000011921},""timestamp"":5790.800000011921},{""type"":""chart_hover"",""data"":{""x"":618,""y"":551,""timestamp"":5799.100000023842},""timestamp"":5799.100000023842},{""type"":""chart_hover"",""data"":{""x"":620,""y"":551,""timestamp"":5807.399999976158},""timestamp"":5807.399999976158},{""type"":""chart_hover"",""data"":{""x"":625,""y"":551,""timestamp"":5815.699999988079},""timestamp"":5815.699999988079},{""type"":""chart_hover"",""data"":{""x"":634,""y"":550,""timestamp"":5824.100000023842},""timestamp"":5824.100000023842},{""type"":""chart_hover"",""data"":{""x"":644,""y"":548,""timestamp"":5832.399999976158},""timestamp"":5832.399999976158},{""type"":""chart_hover"",""data"":{""x"":654,""y"":547,""timestamp"":5840.699999988079},""timestamp"":5840.699999988079},{""type"":""chart_hover"",""data"":{""x"":664,""y"":547,""timestamp"":5849.100000023842},""timestamp"":5849.100000023842},{""type"":""chart_hover"",""data"":{""x"":672,""y"":547,""timestamp"":5857.399999976158},""timestamp"":5857.399999976158},{""type"":""chart_hover"",""data"":{""x"":677,""y"":548,""timestamp"":5865.699999988079},""timestamp"":5865.699999988079},{""type"":""chart_hover"",""data"":{""x"":682,""y"":550,""timestamp"":5874.100000023842},""timestamp"":5874.100000023842},{""type"":""chart_hover"",""data"":{""x"":685,""y"":553,""timestamp"":5882.5},""timestamp"":5882.5},{""type"":""chart_hover"",""data"":{""x"":686,""y"":555,""timestamp"":5890.800000011921},""timestamp"":5890.800000011921},{""type"":""chart_hover"",""data"":{""x"":687,""y"":558,""timestamp"":5899.100000023842},""timestamp"":5899.100000023842},{""type"":""chart_hover"",""data"":{""x"":687,""y"":560,""timestamp"":5907.5},""timestamp"":5907.5},{""type"":""chart_hover"",""data"":{""x"":686,""y"":562,""timestamp"":5915.800000011921},""timestamp"":5915.800000011921},{""type"":""chart_hover"",""data"":{""x"":683,""y"":565,""timestamp"":5925.100000023842},""timestamp"":5925.100000023842},{""type"":""chart_hover"",""data"":{""x"":679,""y"":566,""timestamp"":5932.399999976158},""timestamp"":5932.399999976158},{""type"":""chart_hover"",""data"":{""x"":676,""y"":568,""timestamp"":5940.699999988079},""timestamp"":5940.699999988079},{""type"":""chart_hover"",""data"":{""x"":672,""y"":570,""timestamp"":5950.100000023842},""timestamp"":5950.100000023842},{""type"":""chart_hover"",""data"":{""x"":667,""y"":574,""timestamp"":5957.5},""timestamp"":5957.5},{""type"":""chart_hover"",""data"":{""x"":665,""y"":575,""timestamp"":5965.800000011921},""timestamp"":5965.800000011921},{""type"":""chart_hover"",""data"":{""x"":660,""y"":577,""timestamp"":5974.100000023842},""timestamp"":5974.100000023842},{""type"":""chart_hover"",""data"":{""x"":658,""y"":574,""timestamp"":5982.399999976158},""timestamp"":5982.399999976158},{""type"":""chart_hover"",""data"":{""x"":657,""y"":571,""timestamp"":5990.800000011921},""timestamp"":5990.800000011921},{""type"":""chart_hover"",""data"":{""x"":656,""y"":571,""timestamp"":6196.800000011921},""timestamp"":6196.800000011921},{""type"":""chart_hover"",""data"":{""x"":654,""y"":568,""timestamp"":6207.600000023842},""timestamp"":6207.600000023842},{""type"":""chart_hover"",""data"":{""x"":654,""y"":567,""timestamp"":6216.399999976158},""timestamp"":6216.399999976158},{""type"":""chart_hover"",""data"":{""x"":654,""y"":567,""timestamp"":6224.300000011921},""timestamp"":6224.300000011921},{""type"":""chart_hover"",""data"":{""x"":654,""y"":566,""timestamp"":6232.5},""timestamp"":6232.5},{""type"":""chart_hover"",""data"":{""x"":654,""y"":564,""timestamp"":6257.5},""timestamp"":6257.5},{""type"":""chart_hover"",""data"":{""x"":653,""y"":560,""timestamp"":6266.899999976158},""timestamp"":6266.899999976158},{""type"":""chart_hover"",""data"":{""x"":653,""y"":558,""timestamp"":6274.199999988079},""timestamp"":6274.199999988079},{""type"":""chart_hover"",""data"":{""x"":652,""y"":556,""timestamp"":6282.399999976158},""timestamp"":6282.399999976158},{""type"":""chart_hover"",""data"":{""x"":651,""y"":554,""timestamp"":6290.699999988079},""timestamp"":6290.699999988079},{""type"":""chart_hover"",""data"":{""x"":651,""y"":553,""timestamp"":6299.100000023842},""timestamp"":6299.100000023842},{""type"":""chart_hover"",""data"":{""x"":651,""y"":551,""timestamp"":6307.5},""timestamp"":6307.5},{""type"":""chart_hover"",""data"":{""x"":650,""y"":548,""timestamp"":6315.699999988079},""timestamp"":6315.699999988079},{""type"":""chart_hover"",""data"":{""x"":650,""y"":547,""timestamp"":6324.100000023842},""timestamp"":6324.100000023842},{""type"":""chart_hover"",""data"":{""x"":649,""y"":546,""timestamp"":6332.5},""timestamp"":6332.5},{""type"":""chart_hover"",""data"":{""x"":648,""y"":546,""timestamp"":6340.800000011921},""timestamp"":6340.800000011921},{""type"":""chart_hover"",""data"":{""x"":647,""y"":544,""timestamp"":6349.100000023842},""timestamp"":6349.100000023842},{""type"":""chart_hover"",""data"":{""x"":647,""y"":543,""timestamp"":6358.600000023842},""timestamp"":6358.600000023842},{""type"":""chart_hover"",""data"":{""x"":646,""y"":542,""timestamp"":6365.800000011921},""timestamp"":6365.800000011921},{""type"":""chart_hover"",""data"":{""x"":646,""y"":541,""timestamp"":6374.600000023842},""timestamp"":6374.600000023842},{""type"":""chart_hover"",""data"":{""x"":644,""y"":539,""timestamp"":6382.899999976158},""timestamp"":6382.899999976158},{""type"":""chart_hover"",""data"":{""x"":644,""y"":539,""timestamp"":6389.899999976158},""timestamp"":6389.899999976158},{""type"":""chart_hover"",""data"":{""x"":643,""y"":536,""timestamp"":6398.800000011921},""timestamp"":6398.800000011921},{""type"":""chart_hover"",""data"":{""x"":641,""y"":534,""timestamp"":6407.600000023842},""timestamp"":6407.600000023842},{""type"":""chart_hover"",""data"":{""x"":639,""y"":532,""timestamp"":6416.100000023842},""timestamp"":6416.100000023842},{""type"":""chart_hover"",""data"":{""x"":638,""y"":531,""timestamp"":6422.100000023842},""timestamp"":6422.100000023842},{""type"":""chart_hover"",""data"":{""x"":635,""y"":529,""timestamp"":6432.300000011921},""timestamp"":6432.300000011921},{""type"":""chart_hover"",""data"":{""x"":634,""y"":527,""timestamp"":6441.399999976158},""timestamp"":6441.399999976158},{""type"":""chart_hover"",""data"":{""x"":632,""y"":525,""timestamp"":6448.600000023842},""timestamp"":6448.600000023842},{""type"":""chart_hover"",""data"":{""x"":631,""y"":525,""timestamp"":6456.600000023842},""timestamp"":6456.600000023842},{""type"":""chart_hover"",""data"":{""x"":630,""y"":523,""timestamp"":6464.600000023842},""timestamp"":6464.600000023842},{""type"":""chart_hover"",""data"":{""x"":628,""y"":522,""timestamp"":6472.5},""timestamp"":6472.5},{""type"":""chart_hover"",""data"":{""x"":627,""y"":520,""timestamp"":6481.399999976158},""timestamp"":6481.399999976158},{""type"":""chart_hover"",""data"":{""x"":625,""y"":519,""timestamp"":6489.100000023842},""timestamp"":6489.100000023842},{""type"":""chart_hover"",""data"":{""x"":623,""y"":517,""timestamp"":6497.199999988079},""timestamp"":6497.199999988079},{""type"":""chart_hover"",""data"":{""x"":621,""y"":516,""timestamp"":6505.100000023842},""timestamp"":6505.100000023842},{""type"":""chart_hover"",""data"":{""x"":619,""y"":513,""timestamp"":6512.199999988079},""timestamp"":6512.199999988079},{""type"":""chart_hover"",""data"":{""x"":617,""y"":511,""timestamp"":6520.800000011921},""timestamp"":6520.800000011921},{""type"":""chart_hover"",""data"":{""x"":614,""y"":508,""timestamp"":6528.600000023842},""timestamp"":6528.600000023842},{""type"":""chart_hover"",""data"":{""x"":611,""y"":506,""timestamp"":6536},""timestamp"":6536},{""type"":""chart_hover"",""data"":{""x"":611,""y"":505,""timestamp"":6537.399999976158},""timestamp"":6537.399999976158},{""type"":""chart_hover"",""data"":{""x"":608,""y"":502,""timestamp"":6550.800000011921},""timestamp"":6550.800000011921},{""type"":""chart_hover"",""data"":{""x"":606,""y"":499,""timestamp"":6559.699999988079},""timestamp"":6559.699999988079},{""type"":""chart_hover"",""data"":{""x"":603,""y"":496,""timestamp"":6567.800000011921},""timestamp"":6567.800000011921},{""type"":""chart_hover"",""data"":{""x"":601,""y"":492,""timestamp"":6574.899999976158},""timestamp"":6574.899999976158},{""type"":""chart_hover"",""data"":{""x"":599,""y"":490,""timestamp"":6582.699999988079},""timestamp"":6582.699999988079},{""type"":""chart_hover"",""data"":{""x"":597,""y"":486,""timestamp"":6590.5},""timestamp"":6590.5},{""type"":""chart_hover"",""data"":{""x"":595,""y"":483,""timestamp"":6598.199999988079},""timestamp"":6598.199999988079},{""type"":""chart_hover"",""data"":{""x"":594,""y"":479,""timestamp"":6606},""timestamp"":6606},{""type"":""chart_hover"",""data"":{""x"":593,""y"":477,""timestamp"":6614.100000023842},""timestamp"":6614.100000023842},{""type"":""chart_hover"",""data"":{""x"":591,""y"":475,""timestamp"":6622.399999976158},""timestamp"":6622.399999976158},{""type"":""chart_hover"",""data"":{""x"":590,""y"":472,""timestamp"":6630.399999976158},""timestamp"":6630.399999976158},{""type"":""chart_hover"",""data"":{""x"":589,""y"":469,""timestamp"":6637.5},""timestamp"":6637.5},{""type"":""chart_hover"",""data"":{""x"":588,""y"":468,""timestamp"":6645.800000011921},""timestamp"":6645.800000011921},{""type"":""chart_hover"",""data"":{""x"":588,""y"":464,""timestamp"":6653.199999988079},""timestamp"":6653.199999988079},{""type"":""chart_hover"",""data"":{""x"":586,""y"":461,""timestamp"":6666.899999976158},""timestamp"":6666.899999976158},{""type"":""chart_hover"",""data"":{""x"":586,""y"":458,""timestamp"":6678.800000011921},""timestamp"":6678.800000011921},{""type"":""chart_hover"",""data"":{""x"":586,""y"":457,""timestamp"":6688.100000023842},""timestamp"":6688.100000023842},{""type"":""chart_hover"",""data"":{""x"":586,""y"":458,""timestamp"":6780},""timestamp"":6780},{""type"":""chart_hover"",""data"":{""x"":588,""y"":461,""timestamp"":6788.399999976158},""timestamp"":6788.399999976158},{""type"":""chart_hover"",""data"":{""x"":589,""y"":464,""timestamp"":6797.699999988079},""timestamp"":6797.699999988079},{""type"":""chart_hover"",""data"":{""x"":591,""y"":467,""timestamp"":6806.199999988079},""timestamp"":6806.199999988079},{""type"":""chart_hover"",""data"":{""x"":594,""y"":470,""timestamp"":6814.399999976158},""timestamp"":6814.399999976158},{""type"":""chart_hover"",""data"":{""x"":596,""y"":474,""timestamp"":6823.300000011921},""timestamp"":6823.300000011921},{""type"":""chart_hover"",""data"":{""x"":600,""y"":477,""timestamp"":6831},""timestamp"":6831},{""type"":""chart_hover"",""data"":{""x"":602,""y"":481,""timestamp"":6839.899999976158},""timestamp"":6839.899999976158},{""type"":""chart_hover"",""data"":{""x"":605,""y"":487,""timestamp"":6848.199999988079},""timestamp"":6848.199999988079},{""type"":""chart_hover"",""data"":{""x"":606,""y"":492,""timestamp"":6856},""timestamp"":6856},{""type"":""chart_hover"",""data"":{""x"":606,""y"":497,""timestamp"":6864.100000023842},""timestamp"":6864.100000023842},{""type"":""chart_hover"",""data"":{""x"":602,""y"":504,""timestamp"":6873.199999988079},""timestamp"":6873.199999988079},{""type"":""chart_hover"",""data"":{""x"":596,""y"":510,""timestamp"":6881.199999988079},""timestamp"":6881.199999988079},{""type"":""chart_hover"",""data"":{""x"":590,""y"":513,""timestamp"":6889.100000023842},""timestamp"":6889.100000023842},{""type"":""chart_hover"",""data"":{""x"":581,""y"":518,""timestamp"":6897.300000011921},""timestamp"":6897.300000011921},{""type"":""chart_hover"",""data"":{""x"":568,""y"":525,""timestamp"":6906.600000023842},""timestamp"":6906.600000023842},{""type"":""chart_hover"",""data"":{""x"":552,""y"":529,""timestamp"":6915.100000023842},""timestamp"":6915.100000023842},{""type"":""chart_hover"",""data"":{""x"":534,""y"":532,""timestamp"":6923.699999988079},""timestamp"":6923.699999988079},{""type"":""chart_hover"",""data"":{""x"":514,""y"":532,""timestamp"":6932.100000023842},""timestamp"":6932.100000023842},{""type"":""chart_hover"",""data"":{""x"":501,""y"":529,""timestamp"":6940.199999988079},""timestamp"":6940.199999988079},{""type"":""chart_hover"",""data"":{""x"":490,""y"":524,""timestamp"":6948.600000023842},""timestamp"":6948.600000023842},{""type"":""chart_hover"",""data"":{""x"":476,""y"":504,""timestamp"":6956.899999976158},""timestamp"":6956.899999976158},{""type"":""chart_hover"",""data"":{""x"":466,""y"":496,""timestamp"":6965.199999988079},""timestamp"":6965.199999988079},{""type"":""chart_hover"",""data"":{""x"":462,""y"":490,""timestamp"":6973.5},""timestamp"":6973.5},{""type"":""chart_hover"",""data"":{""x"":462,""y"":485,""timestamp"":6981.899999976158},""timestamp"":6981.899999976158},{""type"":""chart_hover"",""data"":{""x"":466,""y"":481,""timestamp"":7290},""timestamp"":7290},{""type"":""chart_hover"",""data"":{""x"":481,""y"":462,""timestamp"":7299.300000011921},""timestamp"":7299.300000011921},{""type"":""chart_hover"",""data"":{""x"":490,""y"":449,""timestamp"":7307.5},""timestamp"":7307.5},{""type"":""chart_hover"",""data"":{""x"":501,""y"":436,""timestamp"":7316},""timestamp"":7316},{""type"":""chart_hover"",""data"":{""x"":513,""y"":423,""timestamp"":7324.5},""timestamp"":7324.5},{""type"":""chart_hover"",""data"":{""x"":525,""y"":411,""timestamp"":7332.5},""timestamp"":7332.5},{""type"":""chart_hover"",""data"":{""x"":536,""y"":399,""timestamp"":7340.800000011921},""timestamp"":7340.800000011921},{""type"":""chart_hover"",""data"":{""x"":551,""y"":383,""timestamp"":7349.100000023842},""timestamp"":7349.100000023842},{""type"":""chart_hover"",""data"":{""x"":566,""y"":368,""timestamp"":7357.5},""timestamp"":7357.5},{""type"":""chart_hover"",""data"":{""x"":581,""y"":354,""timestamp"":7365.899999976158},""timestamp"":7365.899999976158},{""type"":""chart_hover"",""data"":{""x"":599,""y"":338,""timestamp"":7374.600000023842},""timestamp"":7374.600000023842},{""type"":""chart_hover"",""data"":{""x"":613,""y"":326,""timestamp"":7382.600000023842},""timestamp"":7382.600000023842},{""type"":""chart_hover"",""data"":{""x"":626,""y"":313,""timestamp"":7390.699999988079},""timestamp"":7390.699999988079},{""type"":""chart_hover"",""data"":{""x"":637,""y"":300,""timestamp"":7399.199999988079},""timestamp"":7399.199999988079},{""type"":""chart_hover"",""data"":{""x"":647,""y"":287,""timestamp"":7407.899999976158},""timestamp"":7407.899999976158},{""type"":""chart_hover"",""data"":{""x"":655,""y"":278,""timestamp"":7415.699999988079},""timestamp"":7415.699999988079},{""type"":""chart_hover"",""data"":{""x"":661,""y"":267,""timestamp"":7424.100000023842},""timestamp"":7424.100000023842},{""type"":""chart_hover"",""data"":{""x"":667,""y"":258,""timestamp"":7432.399999976158},""timestamp"":7432.399999976158},{""type"":""chart_hover"",""data"":{""x"":672,""y"":252,""timestamp"":7440.800000011921},""timestamp"":7440.800000011921},{""type"":""chart_hover"",""data"":{""x"":677,""y"":245,""timestamp"":7449.100000023842},""timestamp"":7449.100000023842},{""type"":""chart_hover"",""data"":{""x"":680,""y"":240,""timestamp"":7457.399999976158},""timestamp"":7457.399999976158},{""type"":""chart_hover"",""data"":{""x"":682,""y"":236,""timestamp"":7465.800000011921},""timestamp"":7465.800000011921},{""type"":""chart_hover"",""data"":{""x"":683,""y"":233,""timestamp"":7474.100000023842},""timestamp"":7474.100000023842},{""type"":""chart_hover"",""data"":{""x"":684,""y"":229,""timestamp"":7482.399999976158},""timestamp"":7482.399999976158},{""type"":""chart_hover"",""data"":{""x"":685,""y"":225,""timestamp"":7491.800000011921},""timestamp"":7491.800000011921},{""type"":""chart_hover"",""data"":{""x"":686,""y"":222,""timestamp"":7499.199999988079},""timestamp"":7499.199999988079},{""type"":""chart_hover"",""data"":{""x"":686,""y"":217,""timestamp"":7508.399999976158},""timestamp"":7508.399999976158},{""type"":""chart_hover"",""data"":{""x"":686,""y"":214,""timestamp"":7515.800000011921},""timestamp"":7515.800000011921},{""type"":""chart_hover"",""data"":{""x"":686,""y"":210,""timestamp"":7524.100000023842},""timestamp"":7524.100000023842},{""type"":""chart_hover"",""data"":{""x"":686,""y"":208,""timestamp"":7532.5},""timestamp"":7532.5},{""type"":""chart_hover"",""data"":{""x"":685,""y"":205,""timestamp"":7540.699999988079},""timestamp"":7540.699999988079},{""type"":""chart_hover"",""data"":{""x"":684,""y"":203,""timestamp"":7549},""timestamp"":7549},{""type"":""chart_hover"",""data"":{""x"":683,""y"":203,""timestamp"":7557.399999976158},""timestamp"":7557.399999976158},{""type"":""chart_hover"",""data"":{""x"":682,""y"":203,""timestamp"":7565.800000011921},""timestamp"":7565.800000011921},{""type"":""chart_hover"",""data"":{""x"":681,""y"":202,""timestamp"":7574.100000023842},""timestamp"":7574.100000023842},{""type"":""chart_hover"",""data"":{""x"":681,""y"":201,""timestamp"":7625},""timestamp"":7625},{""type"":""chart_hover"",""data"":{""x"":681,""y"":198,""timestamp"":7632.399999976158},""timestamp"":7632.399999976158},{""type"":""chart_hover"",""data"":{""x"":681,""y"":196,""timestamp"":7640.800000011921},""timestamp"":7640.899999976158},{""type"":""chart_hover"",""data"":{""x"":680,""y"":195,""timestamp"":7649.199999988079},""timestamp"":7649.199999988079},{""type"":""chart_hover"",""data"":{""x"":679,""y"":193,""timestamp"":7657.399999976158},""timestamp"":7657.399999976158},{""type"":""chart_hover"",""data"":{""x"":678,""y"":191,""timestamp"":7665.800000011921},""timestamp"":7665.800000011921},{""type"":""chart_hover"",""data"":{""x"":675,""y"":190,""timestamp"":7674.199999988079},""timestamp"":7674.199999988079},{""type"":""chart_hover"",""data"":{""x"":672,""y"":189,""timestamp"":7682.600000023842},""timestamp"":7682.600000023842},{""type"":""chart_hover"",""data"":{""x"":668,""y"":189,""timestamp"":7690.899999976158},""timestamp"":7690.899999976158},{""type"":""chart_hover"",""data"":{""x"":665,""y"":189,""timestamp"":7699.300000011921},""timestamp"":7699.300000011921},{""type"":""chart_hover"",""data"":{""x"":663,""y"":189,""timestamp"":7707.600000023842},""timestamp"":7707.600000023842},{""type"":""chart_hover"",""data"":{""x"":662,""y"":189,""timestamp"":7715.899999976158},""timestamp"":7715.899999976158},{""type"":""chart_hover"",""data"":{""x"":661,""y"":189,""timestamp"":7724.199999988079},""timestamp"":7724.199999988079},{""type"":""chart_hover"",""data"":{""x"":661,""y"":188,""timestamp"":7737.800000011921},""timestamp"":7737.800000011921},{""type"":""chart_hover"",""data"":{""x"":662,""y"":188,""timestamp"":7821.899999976158},""timestamp"":7821.899999976158},{""type"":""chart_hover"",""data"":{""x"":663,""y"":188,""timestamp"":7824.600000023842},""timestamp"":7824.600000023842},{""type"":""chart_hover"",""data"":{""x"":665,""y"":188,""timestamp"":7833},""timestamp"":7833},{""type"":""chart_hover"",""data"":{""x"":671,""y"":188,""timestamp"":7841.199999988079},""timestamp"":7841.199999988079},{""type"":""chart_hover"",""data"":{""x"":677,""y"":188,""timestamp"":7849.199999988079},""timestamp"":7849.199999988079},{""type"":""chart_hover"",""data"":{""x"":683,""y"":187,""timestamp"":7857.699999988079},""timestamp"":7857.699999988079},{""type"":""chart_hover"",""data"":{""x"":690,""y"":187,""timestamp"":7865.800000011921},""timestamp"":7865.800000011921},{""type"":""chart_hover"",""data"":{""x"":698,""y"":187,""timestamp"":7874.199999988079},""timestamp"":7874.199999988079},{""type"":""chart_hover"",""data"":{""x"":704,""y"":186,""timestamp"":7882.399999976158},""timestamp"":7882.399999976158},{""type"":""chart_hover"",""data"":{""x"":710,""y"":186,""timestamp"":7890.699999988079},""timestamp"":7890.699999988079},{""type"":""chart_hover"",""data"":{""x"":715,""y"":186,""timestamp"":7899.100000023842},""timestamp"":7899.100000023842},{""type"":""chart_hover"",""data"":{""x"":717,""y"":185,""timestamp"":7907.399999976158},""timestamp"":7907.399999976158},{""type"":""chart_hover"",""data"":{""x"":718,""y"":185,""timestamp"":8076.399999976158},""timestamp"":8076.399999976158},{""type"":""chart_hover"",""data"":{""x"":719,""y"":185,""timestamp"":8082.699999988079},""timestamp"":8082.699999988079},{""type"":""chart_hover"",""data"":{""x"":721,""y"":184,""timestamp"":8090.899999976158},""timestamp"":8090.899999976158},{""type"":""chart_hover"",""data"":{""x"":724,""y"":184,""timestamp"":8100.100000023842},""timestamp"":8100.100000023842},{""type"":""chart_hover"",""data"":{""x"":728,""y"":183,""timestamp"":8107.600000023842},""timestamp"":8107.600000023842},{""type"":""chart_hover"",""data"":{""x"":734,""y"":182,""timestamp"":8116},""timestamp"":8116},{""type"":""chart_hover"",""data"":{""x"":739,""y"":181,""timestamp"":8124.100000023842},""timestamp"":8124.100000023842},{""type"":""chart_hover"",""data"":{""x"":743,""y"":180,""timestamp"":8132.5},""timestamp"":8132.5},{""type"":""chart_hover"",""data"":{""x"":748,""y"":180,""timestamp"":8140.800000011921},""timestamp"":8140.800000011921},{""type"":""chart_hover"",""data"":{""x"":751,""y"":179,""timestamp"":8149.600000023842},""timestamp"":8149.600000023842},{""type"":""chart_hover"",""data"":{""x"":754,""y"":178,""timestamp"":8157.5},""timestamp"":8157.5},{""type"":""chart_hover"",""data"":{""x"":756,""y"":178,""timestamp"":8165.800000011921},""timestamp"":8165.800000011921},{""type"":""chart_hover"",""data"":{""x"":756,""y"":178,""timestamp"":8174.399999976158},""timestamp"":8174.399999976158},{""type"":""chart_hover"",""data"":{""x"":756,""y"":178,""timestamp"":8306.600000023842},""timestamp"":8306.600000023842},{""type"":""chart_hover"",""data"":{""x"":755,""y"":178,""timestamp"":8311.399999976158},""timestamp"":8311.399999976158},{""type"":""chart_hover"",""data"":{""x"":752,""y"":178,""timestamp"":8320.600000023842},""timestamp"":8320.699999988079},{""type"":""chart_hover"",""data"":{""x"":749,""y"":179,""timestamp"":8328.800000011921},""timestamp"":8328.800000011921},{""type"":""chart_hover"",""data"":{""x"":746,""y"":179,""timestamp"":8337.199999988079},""timestamp"":8337.199999988079},{""type"":""chart_hover"",""data"":{""x"":741,""y"":180,""timestamp"":8345.100000023842},""timestamp"":8345.100000023842},{""type"":""chart_hover"",""data"":{""x"":736,""y"":180,""timestamp"":8353.399999976158},""timestamp"":8353.399999976158},{""type"":""chart_hover"",""data"":{""x"":735,""y"":180,""timestamp"":8361.800000011921},""timestamp"":8361.800000011921},{""type"":""chart_hover"",""data"":{""x"":723,""y"":182,""timestamp"":8370},""timestamp"":8370},{""type"":""chart_hover"",""data"":{""x"":717,""y"":182,""timestamp"":8379},""timestamp"":8379},{""type"":""chart_hover"",""data"":{""x"":716,""y"":183,""timestamp"":8380.899999976158},""timestamp"":8380.899999976158},{""type"":""chart_hover"",""data"":{""x"":711,""y"":183,""timestamp"":8389.399999976158},""timestamp"":8389.399999976158},{""type"":""chart_hover"",""data"":{""x"":707,""y"":184,""timestamp"":8398.199999988079},""timestamp"":8398.199999988079},{""type"":""chart_hover"",""data"":{""x"":704,""y"":184,""timestamp"":8406.600000023842},""timestamp"":8406.600000023842},{""type"":""chart_hover"",""data"":{""x"":703,""y"":184,""timestamp"":8413.800000011921},""timestamp"":8413.800000011921},{""type"":""chart_hover"",""data"":{""x"":704,""y"":184,""timestamp"":8445.399999976158},""timestamp"":8445.399999976158},{""type"":""chart_hover"",""data"":{""x"":706,""y"":185,""timestamp"":8452.899999976158},""timestamp"":8452.899999976158},{""type"":""chart_hover"",""data"":{""x"":712,""y"":185,""timestamp"":8461.5},""timestamp"":8461.5},{""type"":""chart_hover"",""data"":{""x"":719,""y"":185,""timestamp"":8469.5},""timestamp"":8469.5},{""type"":""chart_hover"",""data"":{""x"":727,""y"":184,""timestamp"":8477.100000023842},""timestamp"":8477.100000023842},{""type"":""chart_hover"",""data"":{""x"":734,""y"":184,""timestamp"":8487.5},""timestamp"":8487.5},{""type"":""chart_hover"",""data"":{""x"":742,""y"":184,""timestamp"":8496.600000023842},""timestamp"":8496.600000023842},{""type"":""chart_hover"",""data"":{""x"":746,""y"":184,""timestamp"":8505.600000023842},""timestamp"":8505.600000023842},{""type"":""chart_hover"",""data"":{""x"":750,""y"":184,""timestamp"":8514.5},""timestamp"":8514.5},{""type"":""chart_hover"",""data"":{""x"":751,""y"":184,""timestamp"":8523},""timestamp"":8523},{""type"":""chart_hover"",""data"":{""x"":752,""y"":184,""timestamp"":8531.300000011921},""timestamp"":8531.300000011921},{""type"":""chart_hover"",""data"":{""x"":752,""y"":185,""timestamp"":8541.199999988079},""timestamp"":8541.199999988079},{""type"":""chart_hover"",""data"":{""x"":752,""y"":186,""timestamp"":8552.600000023842},""timestamp"":8552.600000023842},{""type"":""chart_hover"",""data"":{""x"":752,""y"":187,""timestamp"":8557.699999988079},""timestamp"":8557.699999988079},{""type"":""chart_hover"",""data"":{""x"":751,""y"":188,""timestamp"":8563.600000023842},""timestamp"":8563.600000023842},{""type"":""chart_hover"",""data"":{""x"":748,""y"":189,""timestamp"":8572},""timestamp"":8572},{""type"":""chart_hover"",""data"":{""x"":744,""y"":189,""timestamp"":8580.199999988079},""timestamp"":8580.199999988079},{""type"":""chart_hover"",""data"":{""x"":739,""y"":189,""timestamp"":8588.5},""timestamp"":8588.5},{""type"":""chart_hover"",""data"":{""x"":733,""y"":190,""timestamp"":8596.899999976158},""timestamp"":8596.899999976158},{""type"":""chart_hover"",""data"":{""x"":726,""y"":191,""timestamp"":8604.399999976158},""timestamp"":8604.399999976158},{""type"":""chart_hover"",""data"":{""x"":716,""y"":191,""timestamp"":8613.300000011921},""timestamp"":8613.300000011921},{""type"":""chart_hover"",""data"":{""x"":707,""y"":191,""timestamp"":8621.399999976158},""timestamp"":8621.399999976158},{""type"":""chart_hover"",""data"":{""x"":697,""y"":190,""timestamp"":8629.899999976158},""timestamp"":8629.899999976158},{""type"":""chart_hover"",""data"":{""x"":690,""y"":190,""timestamp"":8637.899999976158},""timestamp"":8637.899999976158},{""type"":""chart_hover"",""data"":{""x"":688,""y"":189,""timestamp"":8646.300000011921},""timestamp"":8646.300000011921},{""type"":""chart_hover"",""data"":{""x"":689,""y"":189,""timestamp"":8699.800000011921},""timestamp"":8699.800000011921},{""type"":""chart_hover"",""data"":{""x"":690,""y"":189,""timestamp"":8703.100000023842},""timestamp"":8703.100000023842},{""type"":""chart_hover"",""data"":{""x"":695,""y"":189,""timestamp"":8711.300000011921},""timestamp"":8711.300000011921},{""type"":""chart_hover"",""data"":{""x"":701,""y"":188,""timestamp"":8719.399999976158},""timestamp"":8719.399999976158},{""type"":""chart_hover"",""data"":{""x"":708,""y"":187,""timestamp"":8727.399999976158},""timestamp"":8727.399999976158},{""type"":""chart_hover"",""data"":{""x"":717,""y"":187,""timestamp"":8735.600000023842},""timestamp"":8735.600000023842},{""type"":""chart_hover"",""data"":{""x"":728,""y"":186,""timestamp"":8743.300000011921},""timestamp"":8743.300000011921},{""type"":""chart_hover"",""data"":{""x"":740,""y"":186,""timestamp"":8751.100000023842},""timestamp"":8751.100000023842},{""type"":""chart_hover"",""data"":{""x"":754,""y"":186,""timestamp"":8758.899999976158},""timestamp"":8758.899999976158},{""type"":""chart_hover"",""data"":{""x"":770,""y"":186,""timestamp"":8767.100000023842},""timestamp"":8767.100000023842},{""type"":""chart_hover"",""data"":{""x"":786,""y"":186,""timestamp"":8775.199999988079},""timestamp"":8775.199999988079},{""type"":""chart_hover"",""data"":{""x"":798,""y"":187,""timestamp"":8783},""timestamp"":8783},{""type"":""chart_hover"",""data"":{""x"":808,""y"":187,""timestamp"":8790.300000011921},""timestamp"":8790.300000011921},{""type"":""chart_hover"",""data"":{""x"":812,""y"":188,""timestamp"":8804.399999976158},""timestamp"":8804.399999976158},{""type"":""chart_hover"",""data"":{""x"":812,""y"":189,""timestamp"":8824},""timestamp"":8824},{""type"":""chart_hover"",""data"":{""x"":812,""y"":189,""timestamp"":8824.800000011921},""timestamp"":8824.800000011921},{""type"":""chart_hover"",""data"":{""x"":807,""y"":190,""timestamp"":8832.800000011921},""timestamp"":8832.800000011921},{""type"":""chart_hover"",""data"":{""x"":799,""y"":192,""timestamp"":8841.199999988079},""timestamp"":8841.199999988079},{""type"":""chart_hover"",""data"":{""x"":789,""y"":195,""timestamp"":8849.600000023842},""timestamp"":8849.600000023842},{""type"":""chart_hover"",""data"":{""x"":777,""y"":196,""timestamp"":8857.699999988079},""timestamp"":8857.699999988079},{""type"":""chart_hover"",""data"":{""x"":766,""y"":199,""timestamp"":8865.800000011921},""timestamp"":8865.800000011921},{""type"":""chart_hover"",""data"":{""x"":756,""y"":201,""timestamp"":8874.199999988079},""timestamp"":8874.199999988079},{""type"":""chart_hover"",""data"":{""x"":747,""y"":203,""timestamp"":8882.199999988079},""timestamp"":8882.199999988079},{""type"":""chart_hover"",""data"":{""x"":742,""y"":204,""timestamp"":8891.100000023842},""timestamp"":8891.100000023842},{""type"":""chart_hover"",""data"":{""x"":739,""y"":205,""timestamp"":8899.199999988079},""timestamp"":8899.199999988079},{""type"":""chart_hover"",""data"":{""x"":738,""y"":205,""timestamp"":8906.5},""timestamp"":8906.5},{""type"":""chart_hover"",""data"":{""x"":739,""y"":205,""timestamp"":8934.199999988079},""timestamp"":8934.199999988079},{""type"":""chart_hover"",""data"":{""x"":741,""y"":205,""timestamp"":8939.899999976158},""timestamp"":8939.899999976158},{""type"":""chart_hover"",""data"":{""x"":745,""y"":205,""timestamp"":8947.699999988079},""timestamp"":8947.699999988079},{""type"":""chart_hover"",""data"":{""x"":751,""y"":205,""timestamp"":8956.600000023842},""timestamp"":8956.600000023842},{""type"":""chart_hover"",""data"":{""x"":759,""y"":204,""timestamp"":8965.699999988079},""timestamp"":8965.699999988079},{""type"":""chart_hover"",""data"":{""x"":766,""y"":203,""timestamp"":8974.699999988079},""timestamp"":8974.699999988079},{""type"":""chart_hover"",""data"":{""x"":774,""y"":203,""timestamp"":8984.800000011921},""timestamp"":8984.800000011921},{""type"":""chart_hover"",""data"":{""x"":778,""y"":202,""timestamp"":8994},""timestamp"":8994},{""type"":""chart_hover"",""data"":{""x"":780,""y"":202,""timestamp"":9001.300000011921},""timestamp"":9001.300000011921},{""type"":""chart_hover"",""data"":{""x"":779,""y"":202,""timestamp"":9034.300000011921},""timestamp"":9034.300000011921},{""type"":""chart_hover"",""data"":{""x"":778,""y"":202,""timestamp"":9037.199999988079},""timestamp"":9037.199999988079},{""type"":""chart_hover"",""data"":{""x"":775,""y"":202,""timestamp"":9043.100000023842},""timestamp"":9043.100000023842},{""type"":""chart_hover"",""data"":{""x"":766,""y"":203,""timestamp"":9051.5},""timestamp"":9051.5},{""type"":""chart_hover"",""data"":{""x"":756,""y"":203,""timestamp"":9059.399999976158},""timestamp"":9059.399999976158},{""type"":""chart_hover"",""data"":{""x"":746,""y"":205,""timestamp"":9067.600000023842},""timestamp"":9067.600000023842},{""type"":""chart_hover"",""data"":{""x"":735,""y"":207,""timestamp"":9076.300000011921},""timestamp"":9076.300000011921},{""type"":""chart_hover"",""data"":{""x"":726,""y"":209,""timestamp"":9084.300000011921},""timestamp"":9084.300000011921},{""type"":""chart_hover"",""data"":{""x"":717,""y"":210,""timestamp"":9092.399999976158},""timestamp"":9092.399999976158},{""type"":""chart_hover"",""data"":{""x"":711,""y"":211,""timestamp"":9100.600000023842},""timestamp"":9100.600000023842},{""type"":""chart_hover"",""data"":{""x"":705,""y"":212,""timestamp"":9109.600000023842},""timestamp"":9109.600000023842},{""type"":""chart_hover"",""data"":{""x"":704,""y"":213,""timestamp"":9117.199999988079},""timestamp"":9117.199999988079},{""type"":""chart_hover"",""data"":{""x"":705,""y"":213,""timestamp"":9142},""timestamp"":9142},{""type"":""chart_hover"",""data"":{""x"":707,""y"":213,""timestamp"":9148.100000023842},""timestamp"":9148.100000023842},{""type"":""chart_hover"",""data"":{""x"":712,""y"":213,""timestamp"":9156.5},""timestamp"":9156.5},{""type"":""chart_hover"",""data"":{""x"":720,""y"":212,""timestamp"":9164.699999988079},""timestamp"":9164.699999988079},{""type"":""chart_hover"",""data"":{""x"":728,""y"":212,""timestamp"":9172.899999976158},""timestamp"":9172.899999976158},{""type"":""chart_hover"",""data"":{""x"":737,""y"":211,""timestamp"":9181.699999988079},""timestamp"":9181.699999988079},{""type"":""chart_hover"",""data"":{""x"":744,""y"":211,""timestamp"":9189.699999988079},""timestamp"":9189.699999988079},{""type"":""chart_hover"",""data"":{""x"":749,""y"":211,""timestamp"":9197.399999976158},""timestamp"":9197.399999976158},{""type"":""chart_hover"",""data"":{""x"":752,""y"":211,""timestamp"":9203.600000023842},""timestamp"":9203.600000023842},{""type"":""chart_hover"",""data"":{""x"":753,""y"":211,""timestamp"":9212},""timestamp"":9212},{""type"":""chart_hover"",""data"":{""x"":752,""y"":212,""timestamp"":9236},""timestamp"":9236},{""type"":""chart_hover"",""data"":{""x"":746,""y"":215,""timestamp"":9244.399999976158},""timestamp"":9244.399999976158},{""type"":""chart_hover"",""data"":{""x"":738,""y"":217,""timestamp"":9252.699999988079},""timestamp"":9252.699999988079},{""type"":""chart_hover"",""data"":{""x"":725,""y"":221,""timestamp"":9261.100000023842},""timestamp"":9261.100000023842},{""type"":""chart_hover"",""data"":{""x"":713,""y"":224,""timestamp"":9269.899999976158},""timestamp"":9269.899999976158},{""type"":""chart_hover"",""data"":{""x"":702,""y"":225,""timestamp"":9277.800000011921},""timestamp"":9277.800000011921},{""type"":""chart_hover"",""data"":{""x"":693,""y"":227,""timestamp"":9286.199999988079},""timestamp"":9286.199999988079},{""type"":""chart_hover"",""data"":{""x"":686,""y"":229,""timestamp"":9294.5},""timestamp"":9294.5},{""type"":""chart_hover"",""data"":{""x"":681,""y"":231,""timestamp"":9303.600000023842},""timestamp"":9303.600000023842},{""type"":""chart_hover"",""data"":{""x"":680,""y"":231,""timestamp"":9311.199999988079},""timestamp"":9311.199999988079},{""type"":""chart_hover"",""data"":{""x"":681,""y"":231,""timestamp"":9344.199999988079},""timestamp"":9344.199999988079},{""type"":""chart_hover"",""data"":{""x"":682,""y"":231,""timestamp"":9346.600000023842},""timestamp"":9346.600000023842},{""type"":""chart_hover"",""data"":{""x"":685,""y"":231,""timestamp"":9352.899999976158},""timestamp"":9352.899999976158},{""type"":""chart_hover"",""data"":{""x"":689,""y"":231,""timestamp"":9361.300000011921},""timestamp"":9361.300000011921},{""type"":""chart_hover"",""data"":{""x"":696,""y"":231,""timestamp"":9369.600000023842},""timestamp"":9369.600000023842},{""type"":""chart_hover"",""data"":{""x"":702,""y"":230,""timestamp"":9377.899999976158},""timestamp"":9377.899999976158},{""type"":""chart_hover"",""data"":{""x"":709,""y"":230,""timestamp"":9387},""timestamp"":9387},{""type"":""chart_hover"",""data"":{""x"":714,""y"":230,""timestamp"":9394.699999988079},""timestamp"":9394.699999988079},{""type"":""chart_hover"",""data"":{""x"":721,""y"":231,""timestamp"":9403.600000023842},""timestamp"":9403.600000023842},{""type"":""chart_hover"",""data"":{""x"":726,""y"":231,""timestamp"":9411.300000011921},""timestamp"":9411.300000011921},{""type"":""chart_hover"",""data"":{""x"":730,""y"":232,""timestamp"":9419.5},""timestamp"":9419.5},{""type"":""chart_hover"",""data"":{""x"":734,""y"":233,""timestamp"":9427.899999976158},""timestamp"":9427.899999976158},{""type"":""chart_hover"",""data"":{""x"":735,""y"":235,""timestamp"":9436.899999976158},""timestamp"":9436.899999976158},{""type"":""chart_hover"",""data"":{""x"":735,""y"":236,""timestamp"":9444.399999976158},""timestamp"":9444.399999976158},{""type"":""chart_hover"",""data"":{""x"":736,""y"":238,""timestamp"":9452.699999988079},""timestamp"":9452.699999988079},{""type"":""chart_hover"",""data"":{""x"":737,""y"":240,""timestamp"":9461.300000011921},""timestamp"":9461.300000011921},{""type"":""chart_hover"",""data"":{""x"":739,""y"":243,""timestamp"":9469.600000023842},""timestamp"":9469.600000023842},{""type"":""chart_hover"",""data"":{""x"":740,""y"":246,""timestamp"":9478},""timestamp"":9478},{""type"":""chart_hover"",""data"":{""x"":742,""y"":249,""timestamp"":9486.300000011921},""timestamp"":9486.300000011921},{""type"":""chart_hover"",""data"":{""x"":743,""y"":253,""timestamp"":9494.600000023842},""timestamp"":9494.600000023842},{""type"":""chart_hover"",""data"":{""x"":745,""y"":258,""timestamp"":9502.899999976158},""timestamp"":9502.899999976158},{""type"":""chart_hover"",""data"":{""x"":749,""y"":262,""timestamp"":9511.300000011921},""timestamp"":9511.300000011921},{""type"":""chart_hover"",""data"":{""x"":752,""y"":267,""timestamp"":9520.100000023842},""timestamp"":9520.100000023842},{""type"":""chart_hover"",""data"":{""x"":756,""y"":273,""timestamp"":9528},""timestamp"":9528},{""type"":""chart_hover"",""data"":{""x"":761,""y"":277,""timestamp"":9536.899999976158},""timestamp"":9536.899999976158},{""type"":""chart_hover"",""data"":{""x"":768,""y"":283,""timestamp"":9545.100000023842},""timestamp"":9545.100000023842},{""type"":""chart_hover"",""data"":{""x"":773,""y"":288,""timestamp"":9553},""timestamp"":9553},{""type"":""chart_hover"",""data"":{""x"":778,""y"":294,""timestamp"":9561.600000023842},""timestamp"":9561.600000023842},{""type"":""chart_hover"",""data"":{""x"":781,""y"":300,""timestamp"":9569.600000023842},""timestamp"":9569.600000023842},{""type"":""chart_hover"",""data"":{""x"":783,""y"":308,""timestamp"":9578},""timestamp"":9578},{""type"":""chart_hover"",""data"":{""x"":784,""y"":315,""timestamp"":9586.300000011921},""timestamp"":9586.300000011921},{""type"":""chart_hover"",""data"":{""x"":783,""y"":324,""timestamp"":9594.600000023842},""timestamp"":9594.600000023842},{""type"":""chart_hover"",""data"":{""x"":779,""y"":334,""timestamp"":9602.800000011921},""timestamp"":9602.800000011921},{""type"":""chart_hover"",""data"":{""x"":773,""y"":344,""timestamp"":9611.199999988079},""timestamp"":9611.199999988079},{""type"":""chart_hover"",""data"":{""x"":766,""y"":353,""timestamp"":9619.5},""timestamp"":9619.5},{""type"":""chart_hover"",""data"":{""x"":757,""y"":363,""timestamp"":9628},""timestamp"":9628},{""type"":""chart_hover"",""data"":{""x"":748,""y"":370,""timestamp"":9636.199999988079},""timestamp"":9636.199999988079},{""type"":""chart_hover"",""data"":{""x"":739,""y"":378,""timestamp"":9644.699999988079},""timestamp"":9644.699999988079},{""type"":""chart_hover"",""data"":{""x"":734,""y"":383,""timestamp"":9652.899999976158},""timestamp"":9652.899999976158},{""type"":""chart_hover"",""data"":{""x"":730,""y"":387,""timestamp"":9661.800000011921},""timestamp"":9661.800000011921},{""type"":""chart_hover"",""data"":{""x"":728,""y"":390,""timestamp"":9668.899999976158},""timestamp"":9668.899999976158},{""type"":""chart_hover"",""data"":{""x"":728,""y"":391,""timestamp"":9677.300000011921},""timestamp"":9677.300000011921},{""type"":""chart_hover"",""data"":{""x"":728,""y"":392,""timestamp"":9686.100000023842},""timestamp"":9686.100000023842},{""type"":""chart_hover"",""data"":{""x"":731,""y"":392,""timestamp"":9710.100000023842},""timestamp"":9710.100000023842},{""type"":""chart_hover"",""data"":{""x"":735,""y"":394,""timestamp"":9718.600000023842},""timestamp"":9718.600000023842},{""type"":""chart_hover"",""data"":{""x"":738,""y"":395,""timestamp"":9727.399999976158},""timestamp"":9727.399999976158},{""type"":""chart_hover"",""data"":{""x"":742,""y"":397,""timestamp"":9735.800000011921},""timestamp"":9735.800000011921},{""type"":""chart_hover"",""data"":{""x"":745,""y"":399,""timestamp"":9744},""timestamp"":9744},{""type"":""chart_hover"",""data"":{""x"":749,""y"":402,""timestamp"":9751.899999976158},""timestamp"":9751.899999976158},{""type"":""chart_hover"",""data"":{""x"":751,""y"":406,""timestamp"":9759.800000011921},""timestamp"":9759.800000011921},{""type"":""chart_hover"",""data"":{""x"":756,""y"":410,""timestamp"":9768.5},""timestamp"":9768.5},{""type"":""chart_hover"",""data"":{""x"":757,""y"":414,""timestamp"":9777.199999988079},""timestamp"":9777.199999988079},{""type"":""chart_hover"",""data"":{""x"":759,""y"":419,""timestamp"":9785.699999988079},""timestamp"":9785.699999988079},{""type"":""chart_hover"",""data"":{""x"":760,""y"":424,""timestamp"":9794.100000023842},""timestamp"":9794.100000023842},{""type"":""chart_hover"",""data"":{""x"":760,""y"":428,""timestamp"":9801.899999976158},""timestamp"":9801.899999976158},{""type"":""chart_hover"",""data"":{""x"":758,""y"":434,""timestamp"":9810.399999976158},""timestamp"":9810.399999976158},{""type"":""chart_hover"",""data"":{""x"":756,""y"":438,""timestamp"":9819},""timestamp"":9819},{""type"":""chart_hover"",""data"":{""x"":749,""y"":443,""timestamp"":9827.100000023842},""timestamp"":9827.100000023842},{""type"":""chart_hover"",""data"":{""x"":743,""y"":448,""timestamp"":9835.699999988079},""timestamp"":9835.699999988079},{""type"":""chart_hover"",""data"":{""x"":738,""y"":450,""timestamp"":9844.199999988079},""timestamp"":9844.199999988079},{""type"":""chart_hover"",""data"":{""x"":730,""y"":454,""timestamp"":9851.699999988079},""timestamp"":9851.699999988079},{""type"":""chart_hover"",""data"":{""x"":722,""y"":455,""timestamp"":9860.100000023842},""timestamp"":9860.100000023842},{""type"":""chart_hover"",""data"":{""x"":714,""y"":457,""timestamp"":9868.399999976158},""timestamp"":9868.399999976158},{""type"":""chart_hover"",""data"":{""x"":702,""y"":458,""timestamp"":9876.5},""timestamp"":9876.5},{""type"":""chart_hover"",""data"":{""x"":689,""y"":458,""timestamp"":9884.600000023842},""timestamp"":9884.600000023842},{""type"":""chart_hover"",""data"":{""x"":676,""y"":457,""timestamp"":9892.800000011921},""timestamp"":9892.800000011921},{""type"":""chart_hover"",""data"":{""x"":660,""y"":455,""timestamp"":9901.300000011921},""timestamp"":9901.300000011921},{""type"":""chart_hover"",""data"":{""x"":645,""y"":451,""timestamp"":9909.100000023842},""timestamp"":9909.100000023842},{""type"":""chart_hover"",""data"":{""x"":630,""y"":447,""timestamp"":9917.800000011921},""timestamp"":9917.800000011921},{""type"":""chart_hover"",""data"":{""x"":615,""y"":440,""timestamp"":9926.199999988079},""timestamp"":9926.199999988079},{""type"":""chart_hover"",""data"":{""x"":598,""y"":428,""timestamp"":9935.399999976158},""timestamp"":9935.399999976158},{""type"":""chart_hover"",""data"":{""x"":581,""y"":413,""timestamp"":9944},""timestamp"":9944},{""type"":""chart_hover"",""data"":{""x"":566,""y"":397,""timestamp"":9952},""timestamp"":9952},{""type"":""chart_hover"",""data"":{""x"":546,""y"":374,""timestamp"":9960.399999976158},""timestamp"":9960.399999976158},{""type"":""chart_hover"",""data"":{""x"":526,""y"":349,""timestamp"":9968.399999976158},""timestamp"":9968.399999976158},{""type"":""chart_hover"",""data"":{""x"":506,""y"":318,""timestamp"":9976.800000011921},""timestamp"":9976.800000011921},{""type"":""chart_hover"",""data"":{""x"":483,""y"":282,""timestamp"":9984.800000011921},""timestamp"":9984.800000011921},{""type"":""chart_hover"",""data"":{""x"":458,""y"":242,""timestamp"":9993.100000023842},""timestamp"":9993.100000023842},{""type"":""chart_hover"",""data"":{""x"":429,""y"":196,""timestamp"":10001.5},""timestamp"":10001.5},{""type"":""chart_hover"",""data"":{""x"":398,""y"":147,""timestamp"":10009.600000023842},""timestamp"":10009.600000023842},{""type"":""chart_leave"",""data"":{""timestamp"":10017.899999976158},""timestamp"":10017.899999976158}]",0.0-5.0,,,1,,,false,50,,,,1,46961.10000002384,,,,,65514,,663,,,No Preference,5,prediction-task,,,,,,true
