city_a_estimate,city_b_estimate,click_events,comprehension_ease,condition,condition_id,condition_name,confidence_label,confidence_rating,data_trust,display_format,end_time,failed_audio,failed_images,failed_video,hover_events,interaction_log,internal_node_id,participant_id,percent_score,phase,phase1_complete,phase2_complete,predictions_shown,probability_estimate,question_order,response,responses,round,rt,rt_total,skeptical_rating,slider_moved,start_time,stimulus,success,time_elapsed,time_on_viz,timeout,total_interactions,total_questions,total_score,travel_choice,trial_index,trial_type,trust_composite,usability_composite,usability_difficulty,view_history,visualization_literacy_score,visualization_shown
,,,,,,,,,,,,"[]","[]","[]",,,0.0-0.0,5d4bed118cbe900016c1f6d0,,,,,,,,,,,,,,,,,true,1110,,false,,,,,0,preload,,,,,,
,,,,,,,,,,,,,,,,,0.0-1.0,5d4bed118cbe900016c1f6d0,,,,,,,,0,,,4419,,,,,"
	        <div class=""welcome-screen"">
	            <h1>Air Quality Prediction Study</h1>
	            <p>Welcome! You are about to participate in a research study about how people make decisions using air quality predictions. This study examines how different ways of presenting prediction information affect trust and decision-making. The study will take approximately 15 minutes.</p>
	            <div class=""study-info"">
	                <h3>What you'll do:</h3>
	                <ul>
	                    <li>Complete a brief assessment of visualization understanding</li>
	                    <li>Make predictions about air quality in two cities</li>
	                    <li>Answer questions about your confidence and trust</li>
						<li>Report basic demographic data</li>
	                </ul>
	            </div>
	        </div>
	    ",,5530,,,,,,,1,html-button-response,,,,,,
,,,,,,,,,,,,,,,,,0.0-2.0,5d4bed118cbe900016c1f6d0,,,,,,,,,,,1669,,,,,,true,8207,,,,,,,2,fullscreen,,,,,,
,,,,,,,,,,,,,,,,,0.0-3.0,5d4bed118cbe900016c1f6d0,,,,,,,,"{""participant_id"":""5d4bed118cbe900016c1f6d0""}",,,4703,,,,,,,12920,,,,,,,3,survey-text,,,,,,
,,,,,,,,,,,,,,,,,0.0-4.0,5d4bed118cbe900016c1f6d0,,,,,,,,0,,,1982,,,,,"
	        <div class=""consent-form"">
	            <h2>Consent Form</h2>
	            <div class=""consent-header"">
	                <p><strong>Principal Investigator:</strong> Dr. Cindy Xiong Bearfield, Assistant Professor</p>
	                <p><strong>Study Title:</strong> Trusting What We See: Effect of Interactivity in Visual Data Analysis</p>
	                <p><strong>Supported By:</strong> Georgia Institute of Technology</p>
	            </div>
	            
	            <div class=""consent-details"">
	                <h3>WHAT IS THIS FORM?</h3>
	                <p>This form is called a Consent Form. It will give you information about the study so you can make an informed decision about participation in this research. We encourage you to take some time to think this over and ask questions now and at any other time. If you decide to participate, you will be asked to sign this form and you will be given a copy for your records.</p>

	                <h3>WHAT ARE SOME OF THE IMPORTANT ASPECTS OF THIS RESEARCH STUDY THAT I SHOULD BE AWARE OF?</h3>
	                <ul>
	                    <li>Whether or not you take part is up to you.</li>
	                    <li>You can choose not to take part.</li>
	                    <li>You can agree to take part and later change your mind.</li>
	                    <li>Your decision will not be held against you.</li>
	                </ul>

	                <h3>WHY ARE WE DOING THIS RESEARCH STUDY?</h3>
	                <p>The purpose of our study is to explore the visualization design space so we can understand how people perceive, interpret, and make decisions from visualizations. The results from this study can help us design visualizations and visualization guidelines to help people better communicate and understand data.</p>

	                <h3>WHO CAN PARTICIPATE IN THIS RESEARCH STUDY?</h3>
	                <p>Participants in this study must be at least 18 years of age or older and have general familiarity with using web-based systems. Participants currently outside of the U.S. cannot participate in this study (e.g. in the European Union or China).</p>

	                <h3>WHAT COMPENSATION I WILL RECEIVE?</h3>
	                <p>You will receive payment through Prolific worth $12/hour for participating in this study. We expect this study to take less than 20 minutes. Your participation is entirely voluntary. You are free to withdraw at any time, and if you do, you will receive partial payment for your time.</p>

	                <h3>HOW MANY PEOPLE WILL PARTICIPATE?</h3>
	                <p>We expect about 200 people will be in this research study.</p>

	                <h3>WHAT WILL I BE ASKED TO DO AND HOW MUCH TIME WILL IT TAKE?</h3>
	                <p>We will show you several data visualizations or components of a visualization and ask you to perform a visual task with the visualization on a computer screen, such as counting, searching, recognizing, memorizing, or describing the information presented to you. We may also ask you to fill out questionnaires concerning your thoughts regarding the visualization you saw. We expect that you will be in this research study to take between 15 and 60 minutes. We expect this study to be a one-off session and will not contact you regarding the study itself in the future.</p>

	                <h3>WILL BEING IN THIS RESEARCH STUDY HELP ME IN ANY WAY?</h3>
	                <p>You are not likely to have any direct benefit from being in this research study. The potential benefits to you from participation may include learning about how data visualization research is conducted, and you may learn about issues of current interest in data visualization and psychology.</p>

	                <h3>WHAT ARE MY RISKS OF BEING IN THIS RESEARCH STUDY?</h3>
	                <p>Your participation in this study does not involve any risks other than what you would encounter in daily life. In particular, you may experience fatigue or boredom, however, you may take breaks between tasks. The effects of participating should be comparable to those you would experience from viewing a computer monitor and using a keyboard. You may withdraw at any time.</p>

	                <h3>HOW WILL MY PERSONAL INFORMATION BE PROTECTED?</h3>
	                <p>We will comply with any applicable laws and regulations regarding confidentiality. To make sure that this research is being carried out in the proper way, the Georgia Institute of Technology IRB may review study records. The Office of Human Research Protections may also look at study records.</p>
	                <p>Efforts will be made to limit the use and disclosure of your personal information, including research study records, to people who need to review this information. We cannot promise complete secrecy. Organizations that may inspect and copy your information include the IRB and other representatives of this institution. Please be notified that our data privacy policy is based on U.S. regulations. Participants who are out of the U.S. might be excluded due to different data privacy requirements.</p>
	                <p><strong>Data Sharing:</strong> De-identified data from this study will be shared among the GATech research team, as well as the research community at large to advance science and health. We will remove or code any personal information that could identify you before files are shared with other researchers to ensure that, by current scientific standards and known methods, no one will be able to identify you from the information we share. Despite these measures, we cannot guarantee the anonymity of your personal data.</p>

	                <h3>WILL I BE GIVEN ANY MONEY OR OTHER COMPENSATION FOR BEING IN THIS RESEARCH STUDY?</h3>
	                <p>If you agree to take part in this research study, we will provide compensation. You will be paid in accordance with the stated policies of Amazon Mechanical Turk and/or Prolific.com. Payment will be made upon completion and acceptance of tasks that you have agreed to complete and you will be paid via Mechanical Turk or Prolific.com. If you choose to withdraw from the study, you will not be compensated for your participation.</p>

	                <h3>WHAT ELSE DO I NEED TO KNOW?</h3>
	                <p>We might be using attention check questions in our surveys. If you miss 2 or more attention check questions, your HIT will not be accepted and you will not be compensated.</p>

	                <h3>WHO CAN I TALK TO IF I HAVE QUESTIONS?</h3>
	                <p>If you have any questions about the content of this research project, you may contact Dr. Cindy Xiong Bearfield at cxiong@gatech.edu, or contact Songwen Hu at shu343@gatech.edu. If you have any questions about your rights as a research subject, you may also contact Georgia Institute of Technology Office of Research Integrity Assurance at IRB@gatech.edu.</p>

	                <h3>WHAT HAPPENS IF I SAY YES, BUT I CHANGE MY MIND LATER?</h3>
	                <p>You can decide not to participate in this research or you can start and then decide to leave the research at any time and it will not be held against you. To do so, simply exit the experiment. Any data already collected will not be saved.</p>

	                <p><strong>By clicking ""I agree"" below you are indicating that you are at least 18 years old, currently in the U.S., have read this consent form, and agree to participate in this research study. Please print a copy of this page for your records.</strong></p>
	            </div>
	        </div>
	    ",,14904,,,,,,,4,html-button-response,,,,,,
,,,,,,,,,,,,,,,,,0.0-5.0,5d4bed118cbe900016c1f6d0,,,,,,,,0,,,5705,,,,,"
	        <div class=""vis-literacy-intro"">
	            <h2>Visualization Assessment</h2>
	            <p>Before we begin the main study, we'd like to assess your ability to read and interpret data visualizations.</p>
	            
	            <div class=""assessment-info"">
	                <h3>What you'll do:</h3>
	                <ul>
	                    <li>View 12 different data visualizations (charts and graphs)</li>
	                    <li>Answer questions about what each visualization shows</li>
	                    <li>Take your time to examine each chart carefully</li>
	                </ul>
	                
	                <p><strong>This assessment will take approximately 5-10 minutes.</strong></p>
	                <p>There are no right or wrong interpretations - we're interested in how you read visualizations.</p>
	            </div>
	        </div>
	    ",,20609,,,,,,,5,html-button-response,,,,,,
,,,,,condition_6_pi_to_ensemble,PI → Ensemble,,,,,,,,,,,0.0-6.0,5d4bed118cbe900016c1f6d0,75,,,,,,,,"[{""question_id"":""minivlat_1"",""question_type"":""treemap"",""question_text"":""eBay is nested in the Software category."",""response"":1,""correct_answer"":1,""is_correct"":true,""rt"":19111.09999999404},{""question_id"":""minivlat_2"",""question_type"":""stacked_100_bar"",""question_text"":""Which country has the lowest proportion of Gold medals?"",""response"":1,""correct_answer"":1,""is_correct"":true,""rt"":31071.59999999404},{""question_id"":""minivlat_3"",""question_type"":""histogram"",""question_text"":""What distance have customers traveled the most?"",""response"":1,""correct_answer"":1,""is_correct"":true,""rt"":18596},{""question_id"":""minivlat_4"",""question_type"":""choropleth"",""question_text"":""In 2020, the unemployment rate for Washington (WA) was higher than that of Wisconsin (WI)."",""response"":0,""correct_answer"":0,""is_correct"":true,""rt"":17235.80000001192},{""question_id"":""minivlat_5"",""question_type"":""pie_chart"",""question_text"":""What is the approximate global smartphone market share of Samsung?"",""response"":1,""correct_answer"":0,""is_correct"":false,""rt"":24184},{""question_id"":""minivlat_6"",""question_type"":""bubble_chart"",""question_text"":""Which has the largest number of metro stations?"",""response"":1,""correct_answer"":1,""is_correct"":true,""rt"":40334.09999999404},{""question_id"":""minivlat_7"",""question_type"":""stacked_bar"",""question_text"":""What is the cost of peanuts in Seoul?"",""response"":3,""correct_answer"":1,""is_correct"":false,""rt"":51655.40000000596},{""question_id"":""minivlat_8"",""question_type"":""line_chart"",""question_text"":""What was the price of a barrel of oil in February 2020?"",""response"":0,""correct_answer"":0,""is_correct"":true,""rt"":24268.09999999404},{""question_id"":""minivlat_9"",""question_type"":""bar_chart"",""question_text"":""What is the average internet speed in Japan?"",""response"":1,""correct_answer"":1,""is_correct"":true,""rt"":13835.800000011921},{""question_id"":""minivlat_10"",""question_type"":""area_chart"",""question_text"":""What was the average price of a pound of coffee in October 2019?"",""response"":0,""correct_answer"":0,""is_correct"":true,""rt"":21729.899999976158},{""question_id"":""minivlat_11"",""question_type"":""stacked_area"",""question_text"":""What was the ratio of girls named \""Isla\"" to girls named \""Amelia\"" in 2012 in the UK?"",""response"":2,""correct_answer"":1,""is_correct"":false,""rt"":24985.80000001192},{""question_id"":""minivlat_12"",""question_type"":""scatter_plot"",""question_text"":""There is a negative relationship between the height and weight of the 85 males."",""response"":1,""correct_answer"":1,""is_correct"":true,""rt"":23490}]",,,310497.59999999404,,,,,,331108,,,,12,9,,6,vis-literacy,,,,,,
,,,,,,,,,,,,,,,,,0.0-7.0,5d4bed118cbe900016c1f6d0,,,,,,,,,,,8139,,,,,,,339248,,,,,,,7,instructions,,,,"[{""page_index"":0,""viewing_time"":8139}]",,
83,91,,,,condition_0_historical,Historical Only,Somewhat Certain,5,,historical_only,,,,,,"[{""type"":""chart_enter"",""data"":{""timestamp"":1113.9000000059605},""timestamp"":1114},{""type"":""chart_hover"",""data"":{""x"":1025,""y"":435,""timestamp"":5471.299999982119},""timestamp"":5471.299999982119},{""type"":""chart_hover"",""data"":{""x"":1025,""y"":436,""timestamp"":7235.5},""timestamp"":7235.5999999940395},{""type"":""chart_hover"",""data"":{""x"":1026,""y"":437,""timestamp"":7251.5},""timestamp"":7251.5},{""type"":""chart_hover"",""data"":{""x"":1027,""y"":437,""timestamp"":7265.299999982119},""timestamp"":7265.299999982119},{""type"":""chart_hover"",""data"":{""x"":1027,""y"":438,""timestamp"":7281.0999999940395},""timestamp"":7281.0999999940395},{""type"":""chart_hover"",""data"":{""x"":1028,""y"":438,""timestamp"":7297.299999982119},""timestamp"":7297.299999982119},{""type"":""chart_hover"",""data"":{""x"":1028,""y"":439,""timestamp"":7313.799999982119},""timestamp"":7313.799999982119},{""type"":""chart_hover"",""data"":{""x"":1028,""y"":440,""timestamp"":7338.699999988079},""timestamp"":7338.699999988079},{""type"":""chart_hover"",""data"":{""x"":1030,""y"":441,""timestamp"":7361.4000000059605},""timestamp"":7361.4000000059605},{""type"":""chart_hover"",""data"":{""x"":1030,""y"":442,""timestamp"":7367.299999982119},""timestamp"":7367.299999982119},{""type"":""chart_hover"",""data"":{""x"":1031,""y"":443,""timestamp"":7379.9000000059605},""timestamp"":7379.9000000059605},{""type"":""chart_hover"",""data"":{""x"":1033,""y"":445,""timestamp"":7396.5},""timestamp"":7396.5},{""type"":""chart_hover"",""data"":{""x"":1035,""y"":447,""timestamp"":7413.0999999940395},""timestamp"":7413.0999999940395},{""type"":""chart_hover"",""data"":{""x"":1039,""y"":451,""timestamp"":7429.9000000059605},""timestamp"":7429.9000000059605},{""type"":""chart_hover"",""data"":{""x"":1040,""y"":452,""timestamp"":7446.9000000059605},""timestamp"":7446.9000000059605},{""type"":""chart_hover"",""data"":{""x"":1043,""y"":456,""timestamp"":7463.699999988079},""timestamp"":7463.799999982119},{""type"":""chart_hover"",""data"":{""x"":1047,""y"":458,""timestamp"":7480.199999988079},""timestamp"":7480.199999988079},{""type"":""chart_hover"",""data"":{""x"":1050,""y"":461,""timestamp"":7513.5999999940395},""timestamp"":7513.5999999940395},{""type"":""chart_hover"",""data"":{""x"":1051,""y"":462,""timestamp"":7530.5},""timestamp"":7530.5},{""type"":""chart_hover"",""data"":{""x"":1051,""y"":463,""timestamp"":7580.299999982119},""timestamp"":7580.4000000059605},{""type"":""chart_hover"",""data"":{""x"":1052,""y"":463,""timestamp"":7597.199999988079},""timestamp"":7597.199999988079},{""type"":""chart_hover"",""data"":{""x"":1053,""y"":464,""timestamp"":7613.699999988079},""timestamp"":7613.699999988079},{""type"":""chart_hover"",""data"":{""x"":1053,""y"":465,""timestamp"":7664.4000000059605},""timestamp"":7664.5},{""type"":""chart_hover"",""data"":{""x"":1054,""y"":467,""timestamp"":7680.9000000059605},""timestamp"":7680.9000000059605},{""type"":""chart_hover"",""data"":{""x"":1055,""y"":467,""timestamp"":7697.5},""timestamp"":7697.5},{""type"":""chart_hover"",""data"":{""x"":1055,""y"":468,""timestamp"":7728.799999982119},""timestamp"":7728.799999982119},{""type"":""chart_hover"",""data"":{""x"":1057,""y"":469,""timestamp"":7734.799999982119},""timestamp"":7734.799999982119},{""type"":""chart_hover"",""data"":{""x"":1057,""y"":470,""timestamp"":7747},""timestamp"":7747},{""type"":""chart_hover"",""data"":{""x"":1060,""y"":473,""timestamp"":7797.199999988079},""timestamp"":7797.199999988079},{""type"":""chart_hover"",""data"":{""x"":1061,""y"":475,""timestamp"":7814.299999982119},""timestamp"":7814.299999982119},{""type"":""chart_hover"",""data"":{""x"":1062,""y"":475,""timestamp"":7836.799999982119},""timestamp"":7836.799999982119},{""type"":""chart_hover"",""data"":{""x"":1062,""y"":476,""timestamp"":7852.699999988079},""timestamp"":7852.699999988079},{""type"":""chart_hover"",""data"":{""x"":1063,""y"":477,""timestamp"":7864.4000000059605},""timestamp"":7864.4000000059605},{""type"":""chart_hover"",""data"":{""x"":1064,""y"":478,""timestamp"":7881},""timestamp"":7881},{""type"":""chart_hover"",""data"":{""x"":1065,""y"":479,""timestamp"":8373.199999988079},""timestamp"":8373.199999988079},{""type"":""chart_hover"",""data"":{""x"":1065,""y"":480,""timestamp"":8423.40000000596},""timestamp"":8423.40000000596},{""type"":""chart_hover"",""data"":{""x"":1066,""y"":481,""timestamp"":8469.09999999404},""timestamp"":8469.09999999404},{""type"":""chart_hover"",""data"":{""x"":1067,""y"":482,""timestamp"":8481.59999999404},""timestamp"":8481.59999999404},{""type"":""chart_hover"",""data"":{""x"":1069,""y"":484,""timestamp"":8498.40000000596},""timestamp"":8498.5},{""type"":""chart_hover"",""data"":{""x"":1075,""y"":491,""timestamp"":8548.40000000596},""timestamp"":8548.40000000596},{""type"":""chart_hover"",""data"":{""x"":1076,""y"":491,""timestamp"":8565.09999999404},""timestamp"":8565.09999999404},{""type"":""chart_hover"",""data"":{""x"":1076,""y"":492,""timestamp"":8581.699999988079},""timestamp"":8581.699999988079},{""type"":""chart_hover"",""data"":{""x"":1077,""y"":493,""timestamp"":8665.199999988079},""timestamp"":8665.199999988079},{""type"":""chart_hover"",""data"":{""x"":1077,""y"":494,""timestamp"":8688.799999982119},""timestamp"":8688.799999982119},{""type"":""chart_hover"",""data"":{""x"":1079,""y"":496,""timestamp"":8732},""timestamp"":8732},{""type"":""chart_hover"",""data"":{""x"":1081,""y"":499,""timestamp"":8748.59999999404},""timestamp"":8748.59999999404},{""type"":""chart_hover"",""data"":{""x"":1082,""y"":500,""timestamp"":8765.5},""timestamp"":8765.5},{""type"":""chart_hover"",""data"":{""x"":1084,""y"":504,""timestamp"":8782},""timestamp"":8782},{""type"":""chart_hover"",""data"":{""x"":1086,""y"":507,""timestamp"":8798.699999988079},""timestamp"":8798.699999988079},{""type"":""chart_hover"",""data"":{""x"":1087,""y"":508,""timestamp"":8815.299999982119},""timestamp"":8815.299999982119},{""type"":""chart_hover"",""data"":{""x"":1087,""y"":509,""timestamp"":8831.59999999404},""timestamp"":8831.59999999404},{""type"":""chart_hover"",""data"":{""x"":1087,""y"":510,""timestamp"":8848.09999999404},""timestamp"":8848.09999999404},{""type"":""chart_hover"",""data"":{""x"":1088,""y"":510,""timestamp"":8865},""timestamp"":8865},{""type"":""chart_hover"",""data"":{""x"":1088,""y"":511,""timestamp"":8915.299999982119},""timestamp"":8915.299999982119},{""type"":""chart_hover"",""data"":{""x"":1089,""y"":511,""timestamp"":9163.799999982119},""timestamp"":9163.90000000596},{""type"":""chart_hover"",""data"":{""x"":1089,""y"":512,""timestamp"":9171.699999988079},""timestamp"":9171.699999988079},{""type"":""chart_hover"",""data"":{""x"":1090,""y"":513,""timestamp"":9181.90000000596},""timestamp"":9181.90000000596},{""type"":""chart_hover"",""data"":{""x"":1090,""y"":514,""timestamp"":9198.59999999404},""timestamp"":9198.59999999404},{""type"":""chart_hover"",""data"":{""x"":1091,""y"":515,""timestamp"":9271.799999982119},""timestamp"":9271.799999982119},{""type"":""chart_hover"",""data"":{""x"":1091,""y"":516,""timestamp"":9288},""timestamp"":9288},{""type"":""chart_hover"",""data"":{""x"":1092,""y"":516,""timestamp"":9298.59999999404},""timestamp"":9298.699999988079},{""type"":""chart_hover"",""data"":{""x"":1092,""y"":517,""timestamp"":9315.40000000596},""timestamp"":9315.40000000596},{""type"":""chart_hover"",""data"":{""x"":1092,""y"":518,""timestamp"":9365.199999988079},""timestamp"":9365.199999988079},{""type"":""chart_hover"",""data"":{""x"":1093,""y"":518,""timestamp"":9381.699999988079},""timestamp"":9381.699999988079},{""type"":""chart_hover"",""data"":{""x"":1093,""y"":519,""timestamp"":9483.90000000596},""timestamp"":9483.90000000596},{""type"":""chart_hover"",""data"":{""x"":1094,""y"":521,""timestamp"":9498.90000000596},""timestamp"":9498.90000000596},{""type"":""chart_hover"",""data"":{""x"":1094,""y"":522,""timestamp"":9563.199999988079},""timestamp"":9563.199999988079},{""type"":""chart_hover"",""data"":{""x"":1094,""y"":523,""timestamp"":9669.199999988079},""timestamp"":9669.199999988079},{""type"":""chart_hover"",""data"":{""x"":1094,""y"":524,""timestamp"":9756.299999982119},""timestamp"":9756.299999982119},{""type"":""chart_hover"",""data"":{""x"":1095,""y"":524,""timestamp"":9765.90000000596},""timestamp"":9765.90000000596},{""type"":""chart_hover"",""data"":{""x"":1095,""y"":525,""timestamp"":9782.40000000596},""timestamp"":9782.40000000596},{""type"":""chart_hover"",""data"":{""x"":1095,""y"":527,""timestamp"":9799.299999982119},""timestamp"":9799.299999982119},{""type"":""chart_hover"",""data"":{""x"":1095,""y"":528,""timestamp"":9817.699999988079},""timestamp"":9817.699999988079},{""type"":""chart_hover"",""data"":{""x"":1096,""y"":528,""timestamp"":9881.799999982119},""timestamp"":9881.799999982119},{""type"":""chart_hover"",""data"":{""x"":1097,""y"":529,""timestamp"":10013.199999988079},""timestamp"":10013.199999988079},{""type"":""chart_hover"",""data"":{""x"":1097,""y"":530,""timestamp"":10021.299999982119},""timestamp"":10021.40000000596},{""type"":""chart_hover"",""data"":{""x"":1097,""y"":531,""timestamp"":10032.5},""timestamp"":10032.5},{""type"":""chart_hover"",""data"":{""x"":1097,""y"":532,""timestamp"":15649.90000000596},""timestamp"":15649.90000000596},{""type"":""chart_hover"",""data"":{""x"":1098,""y"":533,""timestamp"":15697.799999982119},""timestamp"":15697.799999982119},{""type"":""chart_hover"",""data"":{""x"":1098,""y"":534,""timestamp"":15743.299999982119},""timestamp"":15743.299999982119},{""type"":""chart_hover"",""data"":{""x"":1098,""y"":535,""timestamp"":15759.59999999404},""timestamp"":15759.59999999404},{""type"":""chart_hover"",""data"":{""x"":1098,""y"":536,""timestamp"":15775.5},""timestamp"":15775.5},{""type"":""chart_hover"",""data"":{""x"":1098,""y"":537,""timestamp"":15821.699999988079},""timestamp"":15821.699999988079},{""type"":""chart_hover"",""data"":{""x"":1098,""y"":538,""timestamp"":15872.199999988079},""timestamp"":15872.199999988079},{""type"":""chart_hover"",""data"":{""x"":1098,""y"":539,""timestamp"":15888.799999982119},""timestamp"":15888.799999982119},{""type"":""chart_hover"",""data"":{""x"":1098,""y"":540,""timestamp"":15907.799999982119},""timestamp"":15907.799999982119},{""type"":""chart_hover"",""data"":{""x"":1098,""y"":541,""timestamp"":15931.799999982119},""timestamp"":15931.799999982119},{""type"":""chart_hover"",""data"":{""x"":1098,""y"":542,""timestamp"":15938.59999999404},""timestamp"":15938.59999999404},{""type"":""chart_hover"",""data"":{""x"":1098,""y"":543,""timestamp"":15955.09999999404},""timestamp"":15955.09999999404},{""type"":""chart_hover"",""data"":{""x"":1098,""y"":544,""timestamp"":15972.299999982119},""timestamp"":15972.299999982119},{""type"":""chart_hover"",""data"":{""x"":1098,""y"":549,""timestamp"":15988.90000000596},""timestamp"":15988.90000000596},{""type"":""chart_hover"",""data"":{""x"":1098,""y"":551,""timestamp"":16005.799999982119},""timestamp"":16005.799999982119},{""type"":""chart_hover"",""data"":{""x"":1097,""y"":554,""timestamp"":16022.299999982119},""timestamp"":16022.40000000596},{""type"":""chart_hover"",""data"":{""x"":1097,""y"":555,""timestamp"":16039.199999988079},""timestamp"":16039.199999988079},{""type"":""chart_hover"",""data"":{""x"":1095,""y"":559,""timestamp"":16055.5},""timestamp"":16055.5},{""type"":""chart_hover"",""data"":{""x"":1095,""y"":560,""timestamp"":16081.699999988079},""timestamp"":16081.699999988079},{""type"":""chart_hover"",""data"":{""x"":1094,""y"":561,""timestamp"":16122.09999999404},""timestamp"":16122.09999999404},{""type"":""chart_hover"",""data"":{""x"":1093,""y"":564,""timestamp"":16138.90000000596},""timestamp"":16138.90000000596},{""type"":""chart_hover"",""data"":{""x"":1091,""y"":567,""timestamp"":16155.199999988079},""timestamp"":16155.199999988079},{""type"":""chart_hover"",""data"":{""x"":1089,""y"":569,""timestamp"":16172.5},""timestamp"":16172.5},{""type"":""chart_hover"",""data"":{""x"":1088,""y"":571,""timestamp"":16189},""timestamp"":16189},{""type"":""chart_hover"",""data"":{""x"":1081,""y"":580,""timestamp"":16216.699999988079},""timestamp"":16216.699999988079},{""type"":""chart_hover"",""data"":{""x"":1074,""y"":587,""timestamp"":16228.5},""timestamp"":16228.59999999404},{""type"":""chart_hover"",""data"":{""x"":1073,""y"":589,""timestamp"":16239.199999988079},""timestamp"":16239.199999988079},{""type"":""chart_hover"",""data"":{""x"":1070,""y"":592,""timestamp"":16255.799999982119},""timestamp"":16255.799999982119},{""type"":""chart_hover"",""data"":{""x"":1068,""y"":595,""timestamp"":16272.699999988079},""timestamp"":16272.699999988079},{""type"":""chart_hover"",""data"":{""x"":1067,""y"":596,""timestamp"":16289.5},""timestamp"":16289.5},{""type"":""chart_hover"",""data"":{""x"":1065,""y"":597,""timestamp"":16305.699999988079},""timestamp"":16305.699999988079},{""type"":""chart_hover"",""data"":{""x"":1065,""y"":598,""timestamp"":16322.09999999404},""timestamp"":16322.09999999404},{""type"":""chart_leave"",""data"":{""timestamp"":17289.69999998808},""timestamp"":17289.69999998808},{""type"":""chart_enter"",""data"":{""timestamp"":21143.5},""timestamp"":21143.5},{""type"":""chart_hover"",""data"":{""x"":933,""y"":580,""timestamp"":21143.5},""timestamp"":21143.5},{""type"":""chart_hover"",""data"":{""x"":936,""y"":566,""timestamp"":21160.69999998808},""timestamp"":21160.69999998808},{""type"":""chart_hover"",""data"":{""x"":937,""y"":550,""timestamp"":21191.40000000596},""timestamp"":21191.40000000596},{""type"":""chart_hover"",""data"":{""x"":939,""y"":545,""timestamp"":21211.09999999404},""timestamp"":21211.09999999404},{""type"":""chart_hover"",""data"":{""x"":940,""y"":540,""timestamp"":21227.79999998212},""timestamp"":21227.79999998212},{""type"":""chart_hover"",""data"":{""x"":942,""y"":534,""timestamp"":21244.79999998212},""timestamp"":21244.79999998212},{""type"":""chart_hover"",""data"":{""x"":947,""y"":526,""timestamp"":21261.5},""timestamp"":21261.5},{""type"":""chart_hover"",""data"":{""x"":950,""y"":520,""timestamp"":21277.90000000596},""timestamp"":21277.90000000596},{""type"":""chart_hover"",""data"":{""x"":954,""y"":517,""timestamp"":21294.69999998808},""timestamp"":21294.69999998808},{""type"":""chart_hover"",""data"":{""x"":958,""y"":512,""timestamp"":21311.69999998808},""timestamp"":21311.69999998808},{""type"":""chart_hover"",""data"":{""x"":965,""y"":504,""timestamp"":21328.40000000596},""timestamp"":21328.40000000596},{""type"":""chart_hover"",""data"":{""x"":972,""y"":496,""timestamp"":21345},""timestamp"":21345},{""type"":""chart_hover"",""data"":{""x"":979,""y"":489,""timestamp"":21361.69999998808},""timestamp"":21361.69999998808},{""type"":""chart_hover"",""data"":{""x"":986,""y"":484,""timestamp"":21377.79999998212},""timestamp"":21377.79999998212},{""type"":""chart_hover"",""data"":{""x"":988,""y"":481,""timestamp"":21394.59999999404},""timestamp"":21394.59999999404},{""type"":""chart_hover"",""data"":{""x"":990,""y"":481,""timestamp"":21411.40000000596},""timestamp"":21411.40000000596},{""type"":""chart_hover"",""data"":{""x"":991,""y"":481,""timestamp"":21427.90000000596},""timestamp"":21427.90000000596},{""type"":""chart_hover"",""data"":{""x"":993,""y"":480,""timestamp"":21444.5},""timestamp"":21444.5},{""type"":""chart_hover"",""data"":{""x"":998,""y"":479,""timestamp"":21461},""timestamp"":21461.09999999404},{""type"":""chart_hover"",""data"":{""x"":1007,""y"":475,""timestamp"":21477.59999999404},""timestamp"":21477.59999999404},{""type"":""chart_hover"",""data"":{""x"":1028,""y"":467,""timestamp"":21494.09999999404},""timestamp"":21494.09999999404},{""type"":""chart_hover"",""data"":{""x"":1038,""y"":463,""timestamp"":21510.69999998808},""timestamp"":21510.69999998808},{""type"":""chart_hover"",""data"":{""x"":1048,""y"":458,""timestamp"":21527.29999998212},""timestamp"":21527.29999998212},{""type"":""chart_hover"",""data"":{""x"":1059,""y"":453,""timestamp"":21544.09999999404},""timestamp"":21544.09999999404},{""type"":""chart_hover"",""data"":{""x"":1069,""y"":448,""timestamp"":21561},""timestamp"":21561},{""type"":""chart_hover"",""data"":{""x"":1078,""y"":443,""timestamp"":21577.5},""timestamp"":21577.5},{""type"":""chart_hover"",""data"":{""x"":1085,""y"":439,""timestamp"":21594.40000000596},""timestamp"":21594.40000000596},{""type"":""chart_hover"",""data"":{""x"":1089,""y"":437,""timestamp"":21610.90000000596},""timestamp"":21610.90000000596},{""type"":""chart_hover"",""data"":{""x"":1093,""y"":435,""timestamp"":21627.79999998212},""timestamp"":21627.79999998212},{""type"":""chart_hover"",""data"":{""x"":1095,""y"":435,""timestamp"":21644.19999998808},""timestamp"":21644.19999998808},{""type"":""chart_hover"",""data"":{""x"":1096,""y"":435,""timestamp"":21660.90000000596},""timestamp"":21660.90000000596},{""type"":""chart_hover"",""data"":{""x"":1097,""y"":435,""timestamp"":21681.29999998212},""timestamp"":21681.29999998212},{""type"":""chart_hover"",""data"":{""x"":1098,""y"":435,""timestamp"":21694.69999998808},""timestamp"":21694.69999998808},{""type"":""chart_hover"",""data"":{""x"":1103,""y"":435,""timestamp"":21711.29999998212},""timestamp"":21711.29999998212},{""type"":""chart_hover"",""data"":{""x"":1104,""y"":435,""timestamp"":21728.29999998212},""timestamp"":21728.29999998212},{""type"":""chart_hover"",""data"":{""x"":1109,""y"":435,""timestamp"":21744.90000000596},""timestamp"":21744.90000000596},{""type"":""chart_hover"",""data"":{""x"":1110,""y"":435,""timestamp"":21761.59999999404},""timestamp"":21761.59999999404},{""type"":""chart_hover"",""data"":{""x"":1111,""y"":435,""timestamp"":21778.09999999404},""timestamp"":21778.09999999404},{""type"":""chart_hover"",""data"":{""x"":1113,""y"":435,""timestamp"":21798.69999998808},""timestamp"":21798.69999998808},{""type"":""chart_hover"",""data"":{""x"":1115,""y"":435,""timestamp"":21811.5},""timestamp"":21811.5},{""type"":""chart_hover"",""data"":{""x"":1119,""y"":435,""timestamp"":21828.40000000596},""timestamp"":21828.40000000596},{""type"":""chart_hover"",""data"":{""x"":1123,""y"":435,""timestamp"":21844.69999998808},""timestamp"":21844.69999998808},{""type"":""chart_hover"",""data"":{""x"":1130,""y"":435,""timestamp"":21861.40000000596},""timestamp"":21861.40000000596},{""type"":""chart_hover"",""data"":{""x"":1140,""y"":435,""timestamp"":21877.79999998212},""timestamp"":21877.79999998212},{""type"":""chart_hover"",""data"":{""x"":1142,""y"":435,""timestamp"":21894.59999999404},""timestamp"":21894.59999999404},{""type"":""chart_hover"",""data"":{""x"":1148,""y"":435,""timestamp"":21911.19999998808},""timestamp"":21911.19999998808},{""type"":""chart_hover"",""data"":{""x"":1152,""y"":435,""timestamp"":21928},""timestamp"":21928},{""type"":""chart_hover"",""data"":{""x"":1156,""y"":435,""timestamp"":21944.59999999404},""timestamp"":21944.59999999404},{""type"":""chart_hover"",""data"":{""x"":1161,""y"":435,""timestamp"":21961.5},""timestamp"":21961.5},{""type"":""chart_hover"",""data"":{""x"":1169,""y"":433,""timestamp"":21977.90000000596},""timestamp"":21978},{""type"":""chart_hover"",""data"":{""x"":1176,""y"":432,""timestamp"":21995.09999999404},""timestamp"":21995.09999999404},{""type"":""chart_hover"",""data"":{""x"":1183,""y"":431,""timestamp"":22011.69999998808},""timestamp"":22011.69999998808},{""type"":""chart_hover"",""data"":{""x"":1187,""y"":431,""timestamp"":22028.19999998808},""timestamp"":22028.19999998808},{""type"":""chart_hover"",""data"":{""x"":1192,""y"":431,""timestamp"":22044.69999998808},""timestamp"":22044.69999998808},{""type"":""chart_hover"",""data"":{""x"":1196,""y"":431,""timestamp"":22061.5},""timestamp"":22061.5},{""type"":""chart_hover"",""data"":{""x"":1201,""y"":431,""timestamp"":22078},""timestamp"":22078},{""type"":""chart_hover"",""data"":{""x"":1207,""y"":432,""timestamp"":22095.40000000596},""timestamp"":22095.40000000596},{""type"":""chart_hover"",""data"":{""x"":1213,""y"":434,""timestamp"":22111.5},""timestamp"":22111.5},{""type"":""chart_hover"",""data"":{""x"":1219,""y"":434,""timestamp"":22128.09999999404},""timestamp"":22128.09999999404},{""type"":""chart_hover"",""data"":{""x"":1220,""y"":435,""timestamp"":22144.79999998212},""timestamp"":22144.79999998212},{""type"":""chart_hover"",""data"":{""x"":1223,""y"":436,""timestamp"":22161.5},""timestamp"":22161.5},{""type"":""chart_hover"",""data"":{""x"":1225,""y"":438,""timestamp"":22178},""timestamp"":22178},{""type"":""chart_hover"",""data"":{""x"":1227,""y"":440,""timestamp"":22195},""timestamp"":22195},{""type"":""chart_hover"",""data"":{""x"":1231,""y"":441,""timestamp"":22211.79999998212},""timestamp"":22211.79999998212},{""type"":""chart_hover"",""data"":{""x"":1232,""y"":442,""timestamp"":22262},""timestamp"":22262},{""type"":""chart_hover"",""data"":{""x"":1240,""y"":447,""timestamp"":22278.59999999404},""timestamp"":22278.69999998808},{""type"":""chart_hover"",""data"":{""x"":1249,""y"":451,""timestamp"":22295.40000000596},""timestamp"":22295.5},{""type"":""chart_hover"",""data"":{""x"":1253,""y"":454,""timestamp"":22312},""timestamp"":22312},{""type"":""chart_hover"",""data"":{""x"":1256,""y"":455,""timestamp"":22328.5},""timestamp"":22328.5},{""type"":""chart_hover"",""data"":{""x"":1258,""y"":457,""timestamp"":22345.09999999404},""timestamp"":22345.09999999404},{""type"":""chart_hover"",""data"":{""x"":1259,""y"":458,""timestamp"":22361.5},""timestamp"":22361.5},{""type"":""chart_hover"",""data"":{""x"":1259,""y"":459,""timestamp"":22423},""timestamp"":22423},{""type"":""chart_hover"",""data"":{""x"":1259,""y"":460,""timestamp"":22436.69999998808},""timestamp"":22436.69999998808},{""type"":""chart_hover"",""data"":{""x"":1260,""y"":461,""timestamp"":22444.69999998808},""timestamp"":22444.69999998808},{""type"":""chart_hover"",""data"":{""x"":1260,""y"":462,""timestamp"":22461.40000000596},""timestamp"":22461.40000000596},{""type"":""chart_hover"",""data"":{""x"":1260,""y"":463,""timestamp"":22478.09999999404},""timestamp"":22478.09999999404},{""type"":""chart_hover"",""data"":{""x"":1260,""y"":465,""timestamp"":22494.90000000596},""timestamp"":22494.90000000596},{""type"":""chart_hover"",""data"":{""x"":1260,""y"":467,""timestamp"":22511.40000000596},""timestamp"":22511.40000000596},{""type"":""chart_hover"",""data"":{""x"":1260,""y"":469,""timestamp"":22528.19999998808},""timestamp"":22528.19999998808},{""type"":""chart_hover"",""data"":{""x"":1259,""y"":469,""timestamp"":22546.69999998808},""timestamp"":22546.79999998212},{""type"":""chart_hover"",""data"":{""x"":1259,""y"":470,""timestamp"":22562.09999999404},""timestamp"":22562.09999999404},{""type"":""chart_hover"",""data"":{""x"":1257,""y"":471,""timestamp"":22578.59999999404},""timestamp"":22578.69999998808},{""type"":""chart_hover"",""data"":{""x"":1255,""y"":471,""timestamp"":22595.5},""timestamp"":22595.5},{""type"":""chart_hover"",""data"":{""x"":1254,""y"":471,""timestamp"":22612.19999998808},""timestamp"":22612.19999998808},{""type"":""chart_hover"",""data"":{""x"":1252,""y"":472,""timestamp"":22629.19999998808},""timestamp"":22629.19999998808},{""type"":""chart_hover"",""data"":{""x"":1251,""y"":472,""timestamp"":22645.69999998808},""timestamp"":22645.69999998808},{""type"":""chart_hover"",""data"":{""x"":1249,""y"":472,""timestamp"":22662.5},""timestamp"":22662.5},{""type"":""chart_hover"",""data"":{""x"":1247,""y"":473,""timestamp"":22678.90000000596},""timestamp"":22679},{""type"":""chart_hover"",""data"":{""x"":1246,""y"":473,""timestamp"":22728.69999998808},""timestamp"":22728.69999998808},{""type"":""chart_hover"",""data"":{""x"":1245,""y"":473,""timestamp"":22745.09999999404},""timestamp"":22745.09999999404},{""type"":""chart_hover"",""data"":{""x"":1243,""y"":473,""timestamp"":22761.79999998212},""timestamp"":22761.79999998212},{""type"":""chart_hover"",""data"":{""x"":1241,""y"":473,""timestamp"":22782.40000000596},""timestamp"":22782.40000000596},{""type"":""chart_hover"",""data"":{""x"":1240,""y"":473,""timestamp"":22795.90000000596},""timestamp"":22795.90000000596},{""type"":""chart_hover"",""data"":{""x"":1238,""y"":473,""timestamp"":22813},""timestamp"":22813},{""type"":""chart_hover"",""data"":{""x"":1238,""y"":472,""timestamp"":23069.40000000596},""timestamp"":23069.40000000596},{""type"":""chart_hover"",""data"":{""x"":1238,""y"":471,""timestamp"":23117.90000000596},""timestamp"":23117.90000000596},{""type"":""chart_hover"",""data"":{""x"":1237,""y"":471,""timestamp"":23129.09999999404},""timestamp"":23129.09999999404},{""type"":""chart_hover"",""data"":{""x"":1236,""y"":470,""timestamp"":23179.19999998808},""timestamp"":23179.19999998808},{""type"":""chart_hover"",""data"":{""x"":1235,""y"":470,""timestamp"":23195.90000000596},""timestamp"":23195.90000000596},{""type"":""chart_hover"",""data"":{""x"":1235,""y"":469,""timestamp"":23249.90000000596},""timestamp"":23249.90000000596},{""type"":""chart_hover"",""data"":{""x"":1234,""y"":469,""timestamp"":23263.19999998808},""timestamp"":23263.19999998808},{""type"":""chart_click"",""data"":{""x"":1234,""y"":469,""timestamp"":23630.90000000596},""timestamp"":23630.90000000596},{""type"":""chart_hover"",""data"":{""x"":1234,""y"":468,""timestamp"":23663.09999999404},""timestamp"":23663.09999999404},{""type"":""chart_hover"",""data"":{""x"":1233,""y"":467,""timestamp"":23679.40000000596},""timestamp"":23679.40000000596},{""type"":""chart_hover"",""data"":{""x"":1232,""y"":465,""timestamp"":23696.09999999404},""timestamp"":23696.09999999404},{""type"":""chart_hover"",""data"":{""x"":1230,""y"":457,""timestamp"":23712.69999998808},""timestamp"":23712.69999998808},{""type"":""chart_hover"",""data"":{""x"":1228,""y"":441,""timestamp"":23729.40000000596},""timestamp"":23729.40000000596},{""type"":""chart_hover"",""data"":{""x"":1228,""y"":422,""timestamp"":23746.19999998808},""timestamp"":23746.19999998808},{""type"":""chart_hover"",""data"":{""x"":1228,""y"":402,""timestamp"":23762.90000000596},""timestamp"":23762.90000000596},{""type"":""chart_hover"",""data"":{""x"":1228,""y"":382,""timestamp"":23779.40000000596},""timestamp"":23779.5},{""type"":""chart_hover"",""data"":{""x"":1230,""y"":360,""timestamp"":23796.09999999404},""timestamp"":23796.09999999404},{""type"":""chart_hover"",""data"":{""x"":1230,""y"":353,""timestamp"":23812.79999998212},""timestamp"":23812.79999998212},{""type"":""chart_hover"",""data"":{""x"":1232,""y"":340,""timestamp"":23829.59999999404},""timestamp"":23829.59999999404},{""type"":""chart_hover"",""data"":{""x"":1236,""y"":326,""timestamp"":23846.40000000596},""timestamp"":23846.40000000596},{""type"":""chart_hover"",""data"":{""x"":1243,""y"":308,""timestamp"":23862.90000000596},""timestamp"":23862.90000000596},{""type"":""chart_hover"",""data"":{""x"":1252,""y"":295,""timestamp"":23879.69999998808},""timestamp"":23879.69999998808},{""type"":""chart_hover"",""data"":{""x"":1289,""y"":238,""timestamp"":23896.29999998212},""timestamp"":23896.29999998212},{""type"":""chart_hover"",""data"":{""x"":1319,""y"":196,""timestamp"":23913.19999998808},""timestamp"":23913.19999998808},{""type"":""chart_hover"",""data"":{""x"":1339,""y"":169,""timestamp"":23929.90000000596},""timestamp"":23929.90000000596},{""type"":""chart_hover"",""data"":{""x"":1363,""y"":142,""timestamp"":23946.5},""timestamp"":23946.5},{""type"":""chart_leave"",""data"":{""timestamp"":23963.40000000596},""timestamp"":23963.40000000596},{""type"":""chart_enter"",""data"":{""timestamp"":24864.90000000596},""timestamp"":24865},{""type"":""chart_hover"",""data"":{""x"":1448,""y"":116,""timestamp"":24865},""timestamp"":24865},{""type"":""chart_hover"",""data"":{""x"":1432,""y"":134,""timestamp"":24881},""timestamp"":24881},{""type"":""chart_hover"",""data"":{""x"":1391,""y"":167,""timestamp"":24897.5},""timestamp"":24897.5},{""type"":""chart_hover"",""data"":{""x"":1359,""y"":192,""timestamp"":24914.29999998212},""timestamp"":24914.29999998212},{""type"":""chart_hover"",""data"":{""x"":1324,""y"":214,""timestamp"":24931},""timestamp"":24931},{""type"":""chart_hover"",""data"":{""x"":1300,""y"":230,""timestamp"":24948},""timestamp"":24948},{""type"":""chart_hover"",""data"":{""x"":1283,""y"":239,""timestamp"":24964.5},""timestamp"":24964.5},{""type"":""chart_hover"",""data"":{""x"":1266,""y"":251,""timestamp"":24981.19999998808},""timestamp"":24981.19999998808},{""type"":""chart_hover"",""data"":{""x"":1249,""y"":261,""timestamp"":24997.69999998808},""timestamp"":24997.69999998808},{""type"":""chart_hover"",""data"":{""x"":1232,""y"":272,""timestamp"":25014.29999998212},""timestamp"":25014.29999998212},{""type"":""chart_hover"",""data"":{""x"":1227,""y"":277,""timestamp"":25031.19999998808},""timestamp"":25031.19999998808},{""type"":""chart_hover"",""data"":{""x"":1214,""y"":285,""timestamp"":25047.69999998808},""timestamp"":25047.69999998808},{""type"":""chart_hover"",""data"":{""x"":1131,""y"":352,""timestamp"":25148.19999998808},""timestamp"":25148.19999998808},{""type"":""chart_hover"",""data"":{""x"":1125,""y"":358,""timestamp"":25164.59999999404},""timestamp"":25164.59999999404},{""type"":""chart_hover"",""data"":{""x"":1121,""y"":362,""timestamp"":25181},""timestamp"":25181},{""type"":""chart_hover"",""data"":{""x"":1119,""y"":364,""timestamp"":25197.69999998808},""timestamp"":25197.69999998808},{""type"":""chart_hover"",""data"":{""x"":1114,""y"":368,""timestamp"":25214.29999998212},""timestamp"":25214.29999998212},{""type"":""chart_hover"",""data"":{""x"":1105,""y"":375,""timestamp"":25230.90000000596},""timestamp"":25231},{""type"":""chart_hover"",""data"":{""x"":1095,""y"":386,""timestamp"":25247.69999998808},""timestamp"":25247.69999998808},{""type"":""chart_hover"",""data"":{""x"":1088,""y"":393,""timestamp"":25264.29999998212},""timestamp"":25264.29999998212},{""type"":""chart_hover"",""data"":{""x"":1079,""y"":403,""timestamp"":25281.09999999404},""timestamp"":25281.09999999404},{""type"":""chart_hover"",""data"":{""x"":1073,""y"":409,""timestamp"":25297.79999998212},""timestamp"":25297.79999998212},{""type"":""chart_hover"",""data"":{""x"":1070,""y"":413,""timestamp"":25314.5},""timestamp"":25314.5},{""type"":""chart_hover"",""data"":{""x"":1070,""y"":414,""timestamp"":25333},""timestamp"":25333},{""type"":""chart_hover"",""data"":{""x"":1069,""y"":414,""timestamp"":25403.09999999404},""timestamp"":25403.09999999404},{""type"":""chart_hover"",""data"":{""x"":1068,""y"":415,""timestamp"":25414.40000000596},""timestamp"":25414.5},{""type"":""chart_hover"",""data"":{""x"":1066,""y"":419,""timestamp"":25431.09999999404},""timestamp"":25431.09999999404},{""type"":""chart_hover"",""data"":{""x"":1064,""y"":423,""timestamp"":25447.79999998212},""timestamp"":25447.79999998212},{""type"":""chart_hover"",""data"":{""x"":1062,""y"":426,""timestamp"":25464.59999999404},""timestamp"":25464.59999999404},{""type"":""chart_hover"",""data"":{""x"":1058,""y"":430,""timestamp"":25481.19999998808},""timestamp"":25481.19999998808},{""type"":""chart_hover"",""data"":{""x"":1055,""y"":435,""timestamp"":25497.90000000596},""timestamp"":25497.90000000596},{""type"":""chart_hover"",""data"":{""x"":1052,""y"":439,""timestamp"":25514.59999999404},""timestamp"":25514.59999999404},{""type"":""chart_hover"",""data"":{""x"":1050,""y"":441,""timestamp"":25531.29999998212},""timestamp"":25531.29999998212},{""type"":""chart_hover"",""data"":{""x"":1046,""y"":445,""timestamp"":25547.90000000596},""timestamp"":25547.90000000596},{""type"":""chart_hover"",""data"":{""x"":1043,""y"":448,""timestamp"":25564.69999998808},""timestamp"":25564.69999998808},{""type"":""chart_hover"",""data"":{""x"":1039,""y"":451,""timestamp"":25581.40000000596},""timestamp"":25581.40000000596},{""type"":""chart_hover"",""data"":{""x"":1036,""y"":454,""timestamp"":25598.19999998808},""timestamp"":25598.19999998808},{""type"":""chart_hover"",""data"":{""x"":1021,""y"":469,""timestamp"":25624.59999999404},""timestamp"":25624.59999999404},{""type"":""chart_hover"",""data"":{""x"":1016,""y"":472,""timestamp"":25631.29999998212},""timestamp"":25631.29999998212},{""type"":""chart_hover"",""data"":{""x"":1005,""y"":480,""timestamp"":25647.90000000596},""timestamp"":25647.90000000596},{""type"":""chart_hover"",""data"":{""x"":993,""y"":491,""timestamp"":25664.69999998808},""timestamp"":25664.79999998212},{""type"":""chart_hover"",""data"":{""x"":977,""y"":499,""timestamp"":25681.29999998212},""timestamp"":25681.29999998212},{""type"":""chart_hover"",""data"":{""x"":962,""y"":505,""timestamp"":25698.09999999404},""timestamp"":25698.09999999404},{""type"":""chart_hover"",""data"":{""x"":945,""y"":508,""timestamp"":25714.69999998808},""timestamp"":25714.69999998808},{""type"":""chart_hover"",""data"":{""x"":940,""y"":508,""timestamp"":25731.40000000596},""timestamp"":25731.40000000596},{""type"":""chart_hover"",""data"":{""x"":939,""y"":508,""timestamp"":25748.69999998808},""timestamp"":25748.69999998808},{""type"":""chart_hover"",""data"":{""x"":938,""y"":508,""timestamp"":25770.79999998212},""timestamp"":25770.79999998212},{""type"":""chart_hover"",""data"":{""x"":937,""y"":508,""timestamp"":25782},""timestamp"":25782},{""type"":""chart_hover"",""data"":{""x"":937,""y"":507,""timestamp"":25799},""timestamp"":25799},{""type"":""chart_hover"",""data"":{""x"":931,""y"":503,""timestamp"":25815.59999999404},""timestamp"":25815.59999999404},{""type"":""chart_hover"",""data"":{""x"":926,""y"":497,""timestamp"":25832.5},""timestamp"":25832.5},{""type"":""chart_hover"",""data"":{""x"":917,""y"":482,""timestamp"":25849},""timestamp"":25849},{""type"":""chart_hover"",""data"":{""x"":913,""y"":473,""timestamp"":25865.79999998212},""timestamp"":25865.79999998212},{""type"":""chart_hover"",""data"":{""x"":910,""y"":467,""timestamp"":25882.19999998808},""timestamp"":25882.19999998808},{""type"":""chart_hover"",""data"":{""x"":908,""y"":460,""timestamp"":25899},""timestamp"":25899},{""type"":""chart_hover"",""data"":{""x"":906,""y"":453,""timestamp"":25915.69999998808},""timestamp"":25915.69999998808},{""type"":""chart_hover"",""data"":{""x"":903,""y"":444,""timestamp"":25932.40000000596},""timestamp"":25932.40000000596},{""type"":""chart_hover"",""data"":{""x"":902,""y"":438,""timestamp"":25949.19999998808},""timestamp"":25949.19999998808},{""type"":""chart_hover"",""data"":{""x"":901,""y"":430,""timestamp"":25965.40000000596},""timestamp"":25965.40000000596},{""type"":""chart_hover"",""data"":{""x"":901,""y"":408,""timestamp"":25981.90000000596},""timestamp"":25981.90000000596},{""type"":""chart_hover"",""data"":{""x"":901,""y"":385,""timestamp"":25998.59999999404},""timestamp"":25998.59999999404},{""type"":""chart_hover"",""data"":{""x"":903,""y"":373,""timestamp"":26015.09999999404},""timestamp"":26015.09999999404},{""type"":""chart_hover"",""data"":{""x"":906,""y"":356,""timestamp"":26032},""timestamp"":26032},{""type"":""chart_hover"",""data"":{""x"":910,""y"":343,""timestamp"":26049},""timestamp"":26049},{""type"":""chart_hover"",""data"":{""x"":913,""y"":333,""timestamp"":26065.90000000596},""timestamp"":26065.90000000596},{""type"":""chart_hover"",""data"":{""x"":919,""y"":318,""timestamp"":26082.40000000596},""timestamp"":26082.40000000596},{""type"":""chart_hover"",""data"":{""x"":921,""y"":311,""timestamp"":26098.90000000596},""timestamp"":26098.90000000596},{""type"":""chart_hover"",""data"":{""x"":928,""y"":288,""timestamp"":26115.59999999404},""timestamp"":26115.59999999404},{""type"":""chart_hover"",""data"":{""x"":935,""y"":273,""timestamp"":26132.09999999404},""timestamp"":26132.09999999404},{""type"":""chart_hover"",""data"":{""x"":943,""y"":256,""timestamp"":26148.59999999404},""timestamp"":26148.59999999404},{""type"":""chart_hover"",""data"":{""x"":946,""y"":249,""timestamp"":26165.40000000596},""timestamp"":26165.40000000596},{""type"":""chart_hover"",""data"":{""x"":949,""y"":243,""timestamp"":26181.90000000596},""timestamp"":26181.90000000596},{""type"":""chart_hover"",""data"":{""x"":950,""y"":241,""timestamp"":26199.40000000596},""timestamp"":26199.40000000596},{""type"":""chart_hover"",""data"":{""x"":950,""y"":240,""timestamp"":26269.79999998212},""timestamp"":26269.79999998212},{""type"":""chart_hover"",""data"":{""x"":951,""y"":236,""timestamp"":26285.5},""timestamp"":26285.5},{""type"":""chart_hover"",""data"":{""x"":952,""y"":235,""timestamp"":26299},""timestamp"":26299},{""type"":""chart_hover"",""data"":{""x"":952,""y"":233,""timestamp"":26315.59999999404},""timestamp"":26315.59999999404},{""type"":""chart_hover"",""data"":{""x"":954,""y"":231,""timestamp"":26332.40000000596},""timestamp"":26332.40000000596},{""type"":""chart_hover"",""data"":{""x"":957,""y"":225,""timestamp"":26348.69999998808},""timestamp"":26348.69999998808},{""type"":""chart_hover"",""data"":{""x"":959,""y"":220,""timestamp"":26365.40000000596},""timestamp"":26365.40000000596},{""type"":""chart_hover"",""data"":{""x"":962,""y"":215,""timestamp"":26382},""timestamp"":26382.09999999404},{""type"":""chart_hover"",""data"":{""x"":963,""y"":215,""timestamp"":26398.79999998212},""timestamp"":26398.79999998212},{""type"":""chart_hover"",""data"":{""x"":964,""y"":215,""timestamp"":26529.09999999404},""timestamp"":26529.09999999404},{""type"":""chart_hover"",""data"":{""x"":965,""y"":217,""timestamp"":26536.5},""timestamp"":26536.5},{""type"":""chart_hover"",""data"":{""x"":968,""y"":220,""timestamp"":26549.69999998808},""timestamp"":26549.69999998808},{""type"":""chart_hover"",""data"":{""x"":973,""y"":227,""timestamp"":26565.79999998212},""timestamp"":26565.79999998212},{""type"":""chart_hover"",""data"":{""x"":974,""y"":228,""timestamp"":26582.79999998212},""timestamp"":26582.79999998212},{""type"":""chart_hover"",""data"":{""x"":980,""y"":238,""timestamp"":26599.79999998212},""timestamp"":26599.79999998212},{""type"":""chart_hover"",""data"":{""x"":984,""y"":247,""timestamp"":26616.29999998212},""timestamp"":26616.40000000596},{""type"":""chart_hover"",""data"":{""x"":987,""y"":254,""timestamp"":26633.09999999404},""timestamp"":26633.19999998808},{""type"":""chart_hover"",""data"":{""x"":991,""y"":259,""timestamp"":26649.69999998808},""timestamp"":26649.69999998808},{""type"":""chart_hover"",""data"":{""x"":993,""y"":261,""timestamp"":26666.5},""timestamp"":26666.5},{""type"":""chart_hover"",""data"":{""x"":995,""y"":265,""timestamp"":26683.09999999404},""timestamp"":26683.09999999404},{""type"":""chart_hover"",""data"":{""x"":997,""y"":272,""timestamp"":26700},""timestamp"":26700},{""type"":""chart_hover"",""data"":{""x"":999,""y"":278,""timestamp"":26716.09999999404},""timestamp"":26716.09999999404},{""type"":""chart_hover"",""data"":{""x"":1001,""y"":288,""timestamp"":26732.79999998212},""timestamp"":26732.79999998212},{""type"":""chart_hover"",""data"":{""x"":1004,""y"":299,""timestamp"":26749.29999998212},""timestamp"":26749.29999998212},{""type"":""chart_hover"",""data"":{""x"":1006,""y"":307,""timestamp"":26766.09999999404},""timestamp"":26766.09999999404},{""type"":""chart_hover"",""data"":{""x"":1007,""y"":314,""timestamp"":26782.69999998808},""timestamp"":26782.69999998808},{""type"":""chart_hover"",""data"":{""x"":1008,""y"":321,""timestamp"":26799.59999999404},""timestamp"":26799.59999999404},{""type"":""chart_hover"",""data"":{""x"":1008,""y"":323,""timestamp"":26816},""timestamp"":26816},{""type"":""chart_hover"",""data"":{""x"":1008,""y"":324,""timestamp"":27332.19999998808},""timestamp"":27332.19999998808},{""type"":""chart_hover"",""data"":{""x"":1008,""y"":325,""timestamp"":27339.59999999404},""timestamp"":27339.59999999404},{""type"":""chart_hover"",""data"":{""x"":1008,""y"":327,""timestamp"":27349.90000000596},""timestamp"":27349.90000000596},{""type"":""chart_hover"",""data"":{""x"":1008,""y"":331,""timestamp"":27366.40000000596},""timestamp"":27366.40000000596},{""type"":""chart_hover"",""data"":{""x"":1008,""y"":333,""timestamp"":27383},""timestamp"":27383},{""type"":""chart_hover"",""data"":{""x"":1008,""y"":337,""timestamp"":27399.69999998808},""timestamp"":27399.69999998808},{""type"":""chart_hover"",""data"":{""x"":1008,""y"":340,""timestamp"":27416.29999998212},""timestamp"":27416.29999998212},{""type"":""chart_hover"",""data"":{""x"":1008,""y"":345,""timestamp"":27433.19999998808},""timestamp"":27433.19999998808},{""type"":""chart_hover"",""data"":{""x"":1008,""y"":350,""timestamp"":27449.69999998808},""timestamp"":27449.69999998808},{""type"":""chart_hover"",""data"":{""x"":1008,""y"":352,""timestamp"":27466.59999999404},""timestamp"":27466.59999999404},{""type"":""chart_hover"",""data"":{""x"":1008,""y"":363,""timestamp"":27483.29999998212},""timestamp"":27483.29999998212},{""type"":""chart_hover"",""data"":{""x"":1010,""y"":370,""timestamp"":27499.90000000596},""timestamp"":27499.90000000596},{""type"":""chart_hover"",""data"":{""x"":1010,""y"":382,""timestamp"":27516.59999999404},""timestamp"":27516.59999999404},{""type"":""chart_hover"",""data"":{""x"":1013,""y"":402,""timestamp"":27533.29999998212},""timestamp"":27533.29999998212},{""type"":""chart_hover"",""data"":{""x"":1013,""y"":410,""timestamp"":27549.79999998212},""timestamp"":27549.79999998212},{""type"":""chart_hover"",""data"":{""x"":1013,""y"":422,""timestamp"":27566.59999999404},""timestamp"":27566.59999999404},{""type"":""chart_hover"",""data"":{""x"":1013,""y"":437,""timestamp"":27583.29999998212},""timestamp"":27583.29999998212},{""type"":""chart_hover"",""data"":{""x"":1012,""y"":452,""timestamp"":27600},""timestamp"":27600},{""type"":""chart_hover"",""data"":{""x"":1010,""y"":474,""timestamp"":27617},""timestamp"":27617.09999999404},{""type"":""chart_hover"",""data"":{""x"":1008,""y"":486,""timestamp"":27634},""timestamp"":27634},{""type"":""chart_hover"",""data"":{""x"":1006,""y"":498,""timestamp"":27650.5},""timestamp"":27650.5},{""type"":""chart_hover"",""data"":{""x"":1005,""y"":507,""timestamp"":27667.69999998808},""timestamp"":27667.69999998808},{""type"":""chart_hover"",""data"":{""x"":1003,""y"":525,""timestamp"":27683.90000000596},""timestamp"":27683.90000000596},{""type"":""chart_hover"",""data"":{""x"":1002,""y"":538,""timestamp"":27700.29999998212},""timestamp"":27700.29999998212},{""type"":""chart_hover"",""data"":{""x"":1000,""y"":548,""timestamp"":27716.90000000596},""timestamp"":27716.90000000596},{""type"":""chart_hover"",""data"":{""x"":999,""y"":558,""timestamp"":27733.5},""timestamp"":27733.5},{""type"":""chart_hover"",""data"":{""x"":997,""y"":569,""timestamp"":27750.19999998808},""timestamp"":27750.19999998808},{""type"":""chart_hover"",""data"":{""x"":995,""y"":582,""timestamp"":27766.90000000596},""timestamp"":27766.90000000596},{""type"":""chart_hover"",""data"":{""x"":994,""y"":589,""timestamp"":27783.5},""timestamp"":27783.5},{""type"":""chart_hover"",""data"":{""x"":994,""y"":596,""timestamp"":27800.09999999404},""timestamp"":27800.09999999404},{""type"":""chart_leave"",""data"":{""timestamp"":27816.79999998212},""timestamp"":27816.79999998212},{""type"":""chart_enter"",""data"":{""timestamp"":60132.59999999404},""timestamp"":60132.59999999404},{""type"":""chart_hover"",""data"":{""x"":828,""y"":594,""timestamp"":60132.69999998808},""timestamp"":60132.69999998808},{""type"":""chart_hover"",""data"":{""x"":829,""y"":593,""timestamp"":60150},""timestamp"":60150.09999999404},{""type"":""chart_hover"",""data"":{""x"":829,""y"":592,""timestamp"":60190.5},""timestamp"":60190.5},{""type"":""chart_hover"",""data"":{""x"":830,""y"":592,""timestamp"":60299.79999998212},""timestamp"":60299.79999998212},{""type"":""chart_hover"",""data"":{""x"":831,""y"":590,""timestamp"":60317.29999998212},""timestamp"":60317.29999998212},{""type"":""chart_hover"",""data"":{""x"":858,""y"":555,""timestamp"":60333.59999999404},""timestamp"":60333.59999999404},{""type"":""chart_hover"",""data"":{""x"":877,""y"":537,""timestamp"":60350},""timestamp"":60350},{""type"":""chart_hover"",""data"":{""x"":906,""y"":511,""timestamp"":60366.59999999404},""timestamp"":60366.59999999404},{""type"":""chart_hover"",""data"":{""x"":933,""y"":490,""timestamp"":60383.19999998808},""timestamp"":60383.19999998808},{""type"":""chart_hover"",""data"":{""x"":956,""y"":474,""timestamp"":60399.79999998212},""timestamp"":60399.79999998212},{""type"":""chart_hover"",""data"":{""x"":976,""y"":458,""timestamp"":60416.69999998808},""timestamp"":60416.69999998808},{""type"":""chart_hover"",""data"":{""x"":992,""y"":445,""timestamp"":60433.29999998212},""timestamp"":60433.29999998212},{""type"":""chart_hover"",""data"":{""x"":1001,""y"":439,""timestamp"":60449.5},""timestamp"":60449.5},{""type"":""chart_hover"",""data"":{""x"":1013,""y"":432,""timestamp"":60466.09999999404},""timestamp"":60466.09999999404},{""type"":""chart_hover"",""data"":{""x"":1021,""y"":427,""timestamp"":60482.90000000596},""timestamp"":60482.90000000596},{""type"":""chart_hover"",""data"":{""x"":1028,""y"":424,""timestamp"":60499.59999999404},""timestamp"":60499.59999999404},{""type"":""chart_hover"",""data"":{""x"":1031,""y"":422,""timestamp"":60516.19999998808},""timestamp"":60516.19999998808},{""type"":""chart_hover"",""data"":{""x"":1032,""y"":422,""timestamp"":60533},""timestamp"":60533},{""type"":""chart_hover"",""data"":{""x"":1033,""y"":422,""timestamp"":60723.79999998212},""timestamp"":60723.79999998212},{""type"":""chart_hover"",""data"":{""x"":1031,""y"":416,""timestamp"":60766.59999999404},""timestamp"":60766.59999999404},{""type"":""chart_hover"",""data"":{""x"":1023,""y"":400,""timestamp"":60783.09999999404},""timestamp"":60783.09999999404},{""type"":""chart_hover"",""data"":{""x"":1008,""y"":372,""timestamp"":60800},""timestamp"":60800},{""type"":""chart_hover"",""data"":{""x"":981,""y"":313,""timestamp"":60816.5},""timestamp"":60816.5},{""type"":""chart_hover"",""data"":{""x"":969,""y"":277,""timestamp"":60833.29999998212},""timestamp"":60833.29999998212},{""type"":""chart_hover"",""data"":{""x"":965,""y"":243,""timestamp"":60849.90000000596},""timestamp"":60849.90000000596},{""type"":""chart_hover"",""data"":{""x"":965,""y"":220,""timestamp"":60866.59999999404},""timestamp"":60866.69999998808},{""type"":""chart_hover"",""data"":{""x"":964,""y"":199,""timestamp"":60883.5},""timestamp"":60883.5},{""type"":""chart_hover"",""data"":{""x"":961,""y"":184,""timestamp"":60900.40000000596},""timestamp"":60900.40000000596},{""type"":""chart_hover"",""data"":{""x"":958,""y"":167,""timestamp"":60916.69999998808},""timestamp"":60916.69999998808},{""type"":""chart_hover"",""data"":{""x"":954,""y"":151,""timestamp"":60933.5},""timestamp"":60933.5},{""type"":""chart_hover"",""data"":{""x"":954,""y"":145,""timestamp"":60950},""timestamp"":60950},{""type"":""chart_hover"",""data"":{""x"":953,""y"":142,""timestamp"":60966.79999998212},""timestamp"":60966.79999998212},{""type"":""chart_hover"",""data"":{""x"":953,""y"":141,""timestamp"":60983.40000000596},""timestamp"":60983.40000000596},{""type"":""chart_hover"",""data"":{""x"":953,""y"":139,""timestamp"":61000.5},""timestamp"":61000.5},{""type"":""chart_hover"",""data"":{""x"":952,""y"":137,""timestamp"":61016.90000000596},""timestamp"":61016.90000000596},{""type"":""chart_hover"",""data"":{""x"":952,""y"":136,""timestamp"":61043.5},""timestamp"":61043.5},{""type"":""chart_hover"",""data"":{""x"":952,""y"":132,""timestamp"":61049.90000000596},""timestamp"":61049.90000000596},{""type"":""chart_hover"",""data"":{""x"":952,""y"":128,""timestamp"":61066.79999998212},""timestamp"":61066.79999998212},{""type"":""chart_hover"",""data"":{""x"":953,""y"":119,""timestamp"":61083.69999998808},""timestamp"":61083.69999998808},{""type"":""chart_hover"",""data"":{""x"":954,""y"":113,""timestamp"":61100.69999998808},""timestamp"":61100.69999998808},{""type"":""chart_hover"",""data"":{""x"":957,""y"":111,""timestamp"":61117},""timestamp"":61117},{""type"":""chart_hover"",""data"":{""x"":962,""y"":110,""timestamp"":61133.59999999404},""timestamp"":61133.59999999404},{""type"":""chart_hover"",""data"":{""x"":967,""y"":110,""timestamp"":61149.90000000596},""timestamp"":61149.90000000596},{""type"":""chart_hover"",""data"":{""x"":971,""y"":113,""timestamp"":61166.90000000596},""timestamp"":61166.90000000596},{""type"":""chart_hover"",""data"":{""x"":974,""y"":115,""timestamp"":61183.40000000596},""timestamp"":61183.40000000596},{""type"":""chart_hover"",""data"":{""x"":976,""y"":119,""timestamp"":61200},""timestamp"":61200},{""type"":""chart_hover"",""data"":{""x"":982,""y"":123,""timestamp"":61216.69999998808},""timestamp"":61216.69999998808},{""type"":""chart_hover"",""data"":{""x"":988,""y"":126,""timestamp"":61233.40000000596},""timestamp"":61233.40000000596},{""type"":""chart_hover"",""data"":{""x"":990,""y"":127,""timestamp"":61250.29999998212},""timestamp"":61250.29999998212},{""type"":""chart_hover"",""data"":{""x"":990,""y"":128,""timestamp"":61497.09999999404},""timestamp"":61497.09999999404},{""type"":""chart_hover"",""data"":{""x"":990,""y"":129,""timestamp"":61512.29999998212},""timestamp"":61512.29999998212},{""type"":""chart_hover"",""data"":{""x"":990,""y"":130,""timestamp"":61635.5},""timestamp"":61635.5},{""type"":""chart_hover"",""data"":{""x"":990,""y"":131,""timestamp"":61651.5},""timestamp"":61651.5},{""type"":""chart_hover"",""data"":{""x"":990,""y"":133,""timestamp"":61667.5},""timestamp"":61667.5},{""type"":""chart_hover"",""data"":{""x"":989,""y"":135,""timestamp"":61684},""timestamp"":61684},{""type"":""chart_hover"",""data"":{""x"":988,""y"":137,""timestamp"":61700.59999999404},""timestamp"":61700.69999998808},{""type"":""chart_hover"",""data"":{""x"":988,""y"":139,""timestamp"":61717.19999998808},""timestamp"":61717.19999998808},{""type"":""chart_hover"",""data"":{""x"":988,""y"":141,""timestamp"":61734},""timestamp"":61734},{""type"":""chart_hover"",""data"":{""x"":987,""y"":142,""timestamp"":61750.59999999404},""timestamp"":61750.59999999404},{""type"":""chart_hover"",""data"":{""x"":987,""y"":144,""timestamp"":62081.59999999404},""timestamp"":62081.59999999404},{""type"":""chart_hover"",""data"":{""x"":993,""y"":152,""timestamp"":62095.90000000596},""timestamp"":62095.90000000596},{""type"":""chart_hover"",""data"":{""x"":996,""y"":157,""timestamp"":62103.40000000596},""timestamp"":62103.40000000596},{""type"":""chart_hover"",""data"":{""x"":1001,""y"":162,""timestamp"":62117.79999998212},""timestamp"":62117.79999998212},{""type"":""chart_hover"",""data"":{""x"":1011,""y"":174,""timestamp"":62134.69999998808},""timestamp"":62134.69999998808},{""type"":""chart_hover"",""data"":{""x"":1024,""y"":191,""timestamp"":62151.29999998212},""timestamp"":62151.29999998212},{""type"":""chart_hover"",""data"":{""x"":1033,""y"":203,""timestamp"":62168},""timestamp"":62168},{""type"":""chart_hover"",""data"":{""x"":1042,""y"":213,""timestamp"":62184.5},""timestamp"":62184.5},{""type"":""chart_hover"",""data"":{""x"":1060,""y"":233,""timestamp"":62201.29999998212},""timestamp"":62201.29999998212},{""type"":""chart_hover"",""data"":{""x"":1073,""y"":247,""timestamp"":62217.79999998212},""timestamp"":62217.79999998212},{""type"":""chart_hover"",""data"":{""x"":1087,""y"":262,""timestamp"":62234.69999998808},""timestamp"":62234.69999998808},{""type"":""chart_hover"",""data"":{""x"":1095,""y"":272,""timestamp"":62251.29999998212},""timestamp"":62251.29999998212},{""type"":""chart_hover"",""data"":{""x"":1100,""y"":278,""timestamp"":62268},""timestamp"":62268},{""type"":""chart_hover"",""data"":{""x"":1102,""y"":282,""timestamp"":62284.59999999404},""timestamp"":62284.59999999404},{""type"":""chart_hover"",""data"":{""x"":1109,""y"":290,""timestamp"":62301.40000000596},""timestamp"":62301.40000000596},{""type"":""chart_hover"",""data"":{""x"":1114,""y"":295,""timestamp"":62318.09999999404},""timestamp"":62318.09999999404},{""type"":""chart_hover"",""data"":{""x"":1123,""y"":303,""timestamp"":62334.90000000596},""timestamp"":62334.90000000596},{""type"":""chart_hover"",""data"":{""x"":1132,""y"":312,""timestamp"":62351.19999998808},""timestamp"":62351.19999998808},{""type"":""chart_hover"",""data"":{""x"":1140,""y"":321,""timestamp"":62367.90000000596},""timestamp"":62367.90000000596},{""type"":""chart_hover"",""data"":{""x"":1149,""y"":333,""timestamp"":62384.5},""timestamp"":62384.5},{""type"":""chart_hover"",""data"":{""x"":1158,""y"":344,""timestamp"":62401.29999998212},""timestamp"":62401.29999998212},{""type"":""chart_hover"",""data"":{""x"":1166,""y"":354,""timestamp"":62417.90000000596},""timestamp"":62417.90000000596},{""type"":""chart_hover"",""data"":{""x"":1175,""y"":364,""timestamp"":62434.69999998808},""timestamp"":62434.69999998808},{""type"":""chart_hover"",""data"":{""x"":1182,""y"":371,""timestamp"":62451.19999998808},""timestamp"":62451.19999998808},{""type"":""chart_hover"",""data"":{""x"":1187,""y"":376,""timestamp"":62468.5},""timestamp"":62468.5},{""type"":""chart_hover"",""data"":{""x"":1187,""y"":377,""timestamp"":62484.90000000596},""timestamp"":62484.90000000596},{""type"":""chart_hover"",""data"":{""x"":1189,""y"":379,""timestamp"":62518.40000000596},""timestamp"":62518.40000000596},{""type"":""chart_hover"",""data"":{""x"":1192,""y"":384,""timestamp"":62526.29999998212},""timestamp"":62526.40000000596},{""type"":""chart_hover"",""data"":{""x"":1197,""y"":388,""timestamp"":62535.19999998808},""timestamp"":62535.29999998212},{""type"":""chart_hover"",""data"":{""x"":1201,""y"":395,""timestamp"":62551.90000000596},""timestamp"":62551.90000000596},{""type"":""chart_hover"",""data"":{""x"":1203,""y"":397,""timestamp"":62568.69999998808},""timestamp"":62568.69999998808},{""type"":""chart_hover"",""data"":{""x"":1203,""y"":399,""timestamp"":62636.69999998808},""timestamp"":62636.69999998808},{""type"":""chart_hover"",""data"":{""x"":1206,""y"":416,""timestamp"":62652},""timestamp"":62652},{""type"":""chart_hover"",""data"":{""x"":1206,""y"":429,""timestamp"":62668.90000000596},""timestamp"":62668.90000000596},{""type"":""chart_hover"",""data"":{""x"":1207,""y"":438,""timestamp"":62685.5},""timestamp"":62685.5},{""type"":""chart_hover"",""data"":{""x"":1207,""y"":442,""timestamp"":62701.79999998212},""timestamp"":62701.79999998212},{""type"":""chart_hover"",""data"":{""x"":1207,""y"":443,""timestamp"":62718.40000000596},""timestamp"":62718.40000000596},{""type"":""chart_hover"",""data"":{""x"":1207,""y"":444,""timestamp"":62737.19999998808},""timestamp"":62737.19999998808},{""type"":""chart_hover"",""data"":{""x"":1208,""y"":453,""timestamp"":62751.69999998808},""timestamp"":62751.69999998808},{""type"":""chart_hover"",""data"":{""x"":1211,""y"":471,""timestamp"":62768.5},""timestamp"":62768.5},{""type"":""chart_hover"",""data"":{""x"":1211,""y"":474,""timestamp"":62785.09999999404},""timestamp"":62785.09999999404},{""type"":""chart_hover"",""data"":{""x"":1214,""y"":484,""timestamp"":62802.19999998808},""timestamp"":62802.19999998808},{""type"":""chart_hover"",""data"":{""x"":1216,""y"":488,""timestamp"":62818.69999998808},""timestamp"":62818.69999998808},{""type"":""chart_hover"",""data"":{""x"":1218,""y"":489,""timestamp"":62989.09999999404},""timestamp"":62989.09999999404},{""type"":""chart_hover"",""data"":{""x"":1226,""y"":498,""timestamp"":63002.79999998212},""timestamp"":63002.79999998212},{""type"":""chart_hover"",""data"":{""x"":1235,""y"":509,""timestamp"":63018.5},""timestamp"":63018.5},{""type"":""chart_hover"",""data"":{""x"":1239,""y"":513,""timestamp"":63035.79999998212},""timestamp"":63035.79999998212},{""type"":""chart_hover"",""data"":{""x"":1240,""y"":513,""timestamp"":63096.90000000596},""timestamp"":63096.90000000596},{""type"":""chart_hover"",""data"":{""x"":1241,""y"":513,""timestamp"":63112.29999998212},""timestamp"":63112.29999998212},{""type"":""chart_hover"",""data"":{""x"":1242,""y"":509,""timestamp"":63120.79999998212},""timestamp"":63120.79999998212},{""type"":""chart_hover"",""data"":{""x"":1245,""y"":501,""timestamp"":63135.5},""timestamp"":63135.5},{""type"":""chart_hover"",""data"":{""x"":1246,""y"":495,""timestamp"":63152},""timestamp"":63152},{""type"":""chart_hover"",""data"":{""x"":1247,""y"":492,""timestamp"":63168.69999998808},""timestamp"":63168.69999998808},{""type"":""chart_hover"",""data"":{""x"":1247,""y"":491,""timestamp"":63210.90000000596},""timestamp"":63210.90000000596},{""type"":""chart_hover"",""data"":{""x"":1247,""y"":489,""timestamp"":63252},""timestamp"":63252},{""type"":""chart_hover"",""data"":{""x"":1247,""y"":487,""timestamp"":63268.79999998212},""timestamp"":63268.79999998212},{""type"":""chart_hover"",""data"":{""x"":1248,""y"":483,""timestamp"":63285.5},""timestamp"":63285.5},{""type"":""chart_hover"",""data"":{""x"":1248,""y"":482,""timestamp"":63302.19999998808},""timestamp"":63302.19999998808},{""type"":""chart_hover"",""data"":{""x"":1249,""y"":479,""timestamp"":63318.90000000596},""timestamp"":63318.90000000596},{""type"":""chart_hover"",""data"":{""x"":1248,""y"":479,""timestamp"":63453.40000000596},""timestamp"":63453.40000000596},{""type"":""chart_hover"",""data"":{""x"":1247,""y"":478,""timestamp"":63469.19999998808},""timestamp"":63469.19999998808},{""type"":""chart_hover"",""data"":{""x"":1246,""y"":477,""timestamp"":63486.29999998212},""timestamp"":63486.40000000596},{""type"":""chart_hover"",""data"":{""x"":1245,""y"":477,""timestamp"":63503.09999999404},""timestamp"":63503.09999999404},{""type"":""chart_hover"",""data"":{""x"":1244,""y"":476,""timestamp"":63519.19999998808},""timestamp"":63519.19999998808},{""type"":""chart_hover"",""data"":{""x"":1241,""y"":476,""timestamp"":63535.90000000596},""timestamp"":63535.90000000596},{""type"":""chart_hover"",""data"":{""x"":1238,""y"":473,""timestamp"":63552.59999999404},""timestamp"":63552.59999999404},{""type"":""chart_hover"",""data"":{""x"":1236,""y"":471,""timestamp"":63569.19999998808},""timestamp"":63569.19999998808},{""type"":""chart_hover"",""data"":{""x"":1233,""y"":470,""timestamp"":63585.79999998212},""timestamp"":63585.79999998212},{""type"":""chart_hover"",""data"":{""x"":1233,""y"":469,""timestamp"":63602.59999999404},""timestamp"":63602.59999999404},{""type"":""chart_hover"",""data"":{""x"":1232,""y"":468,""timestamp"":63625.5},""timestamp"":63625.5},{""type"":""chart_hover"",""data"":{""x"":1230,""y"":467,""timestamp"":63650.19999998808},""timestamp"":63650.19999998808},{""type"":""chart_hover"",""data"":{""x"":1228,""y"":465,""timestamp"":63689.69999998808},""timestamp"":63689.69999998808},{""type"":""chart_hover"",""data"":{""x"":1227,""y"":464,""timestamp"":63702.90000000596},""timestamp"":63702.90000000596},{""type"":""chart_hover"",""data"":{""x"":1224,""y"":463,""timestamp"":63719.5},""timestamp"":63719.5},{""type"":""chart_click"",""data"":{""x"":1224,""y"":463,""timestamp"":64006.69999998808},""timestamp"":64006.69999998808},{""type"":""chart_hover"",""data"":{""x"":1221,""y"":463,""timestamp"":64136.59999999404},""timestamp"":64136.59999999404},{""type"":""chart_hover"",""data"":{""x"":1210,""y"":463,""timestamp"":64153.29999998212},""timestamp"":64153.29999998212},{""type"":""chart_hover"",""data"":{""x"":1176,""y"":462,""timestamp"":64169.79999998212},""timestamp"":64169.79999998212},{""type"":""chart_hover"",""data"":{""x"":1139,""y"":462,""timestamp"":64186.29999998212},""timestamp"":64186.29999998212},{""type"":""chart_hover"",""data"":{""x"":1090,""y"":468,""timestamp"":64203.09999999404},""timestamp"":64203.09999999404},{""type"":""chart_hover"",""data"":{""x"":1069,""y"":472,""timestamp"":64219.69999998808},""timestamp"":64219.69999998808},{""type"":""chart_hover"",""data"":{""x"":1048,""y"":477,""timestamp"":64236.69999998808},""timestamp"":64236.69999998808},{""type"":""chart_hover"",""data"":{""x"":1034,""y"":480,""timestamp"":64253.19999998808},""timestamp"":64253.19999998808},{""type"":""chart_hover"",""data"":{""x"":1020,""y"":482,""timestamp"":64270.19999998808},""timestamp"":64270.19999998808},{""type"":""chart_hover"",""data"":{""x"":1007,""y"":484,""timestamp"":64286.79999998212},""timestamp"":64286.79999998212},{""type"":""chart_hover"",""data"":{""x"":1005,""y"":484,""timestamp"":64303.5},""timestamp"":64303.5},{""type"":""chart_hover"",""data"":{""x"":1004,""y"":484,""timestamp"":64327.59999999404},""timestamp"":64327.59999999404},{""type"":""chart_hover"",""data"":{""x"":1003,""y"":483,""timestamp"":64337.5},""timestamp"":64337.5},{""type"":""chart_hover"",""data"":{""x"":999,""y"":480,""timestamp"":64353.09999999404},""timestamp"":64353.09999999404},{""type"":""chart_hover"",""data"":{""x"":997,""y"":477,""timestamp"":64369.90000000596},""timestamp"":64369.90000000596},{""type"":""chart_hover"",""data"":{""x"":997,""y"":476,""timestamp"":64386.5},""timestamp"":64386.5},{""type"":""chart_hover"",""data"":{""x"":996,""y"":473,""timestamp"":64403.29999998212},""timestamp"":64403.29999998212},{""type"":""chart_hover"",""data"":{""x"":993,""y"":466,""timestamp"":64420},""timestamp"":64420},{""type"":""chart_hover"",""data"":{""x"":989,""y"":461,""timestamp"":64436.79999998212},""timestamp"":64436.79999998212},{""type"":""chart_hover"",""data"":{""x"":985,""y"":455,""timestamp"":64453.40000000596},""timestamp"":64453.40000000596},{""type"":""chart_hover"",""data"":{""x"":985,""y"":454,""timestamp"":64595.29999998212},""timestamp"":64595.29999998212},{""type"":""chart_hover"",""data"":{""x"":985,""y"":453,""timestamp"":64603.5},""timestamp"":64603.5},{""type"":""chart_hover"",""data"":{""x"":985,""y"":452,""timestamp"":64678.90000000596},""timestamp"":64678.90000000596},{""type"":""chart_hover"",""data"":{""x"":984,""y"":452,""timestamp"":64686.90000000596},""timestamp"":64686.90000000596},{""type"":""chart_hover"",""data"":{""x"":983,""y"":450,""timestamp"":64703.59999999404},""timestamp"":64703.59999999404},{""type"":""chart_hover"",""data"":{""x"":982,""y"":449,""timestamp"":64720.19999998808},""timestamp"":64720.19999998808},{""type"":""chart_hover"",""data"":{""x"":982,""y"":448,""timestamp"":64736.90000000596},""timestamp"":64736.90000000596},{""type"":""chart_hover"",""data"":{""x"":983,""y"":448,""timestamp"":65186.69999998808},""timestamp"":65186.69999998808},{""type"":""chart_hover"",""data"":{""x"":985,""y"":448,""timestamp"":65205.79999998212},""timestamp"":65205.90000000596},{""type"":""chart_hover"",""data"":{""x"":986,""y"":448,""timestamp"":65221.19999998808},""timestamp"":65221.19999998808},{""type"":""chart_hover"",""data"":{""x"":988,""y"":448,""timestamp"":65237.69999998808},""timestamp"":65237.69999998808},{""type"":""chart_hover"",""data"":{""x"":990,""y"":449,""timestamp"":65254.40000000596},""timestamp"":65254.40000000596},{""type"":""chart_hover"",""data"":{""x"":991,""y"":449,""timestamp"":65271},""timestamp"":65271},{""type"":""chart_hover"",""data"":{""x"":995,""y"":450,""timestamp"":65287.5},""timestamp"":65287.5},{""type"":""chart_hover"",""data"":{""x"":997,""y"":451,""timestamp"":65304.09999999404},""timestamp"":65304.09999999404},{""type"":""chart_click"",""data"":{""x"":997,""y"":451,""timestamp"":65708.5},""timestamp"":65708.5},{""type"":""chart_hover"",""data"":{""x"":997,""y"":451,""timestamp"":65737.79999998212},""timestamp"":65737.79999998212},{""type"":""chart_hover"",""data"":{""x"":998,""y"":452,""timestamp"":65850.59999999404},""timestamp"":65850.59999999404},{""type"":""chart_hover"",""data"":{""x"":1005,""y"":457,""timestamp"":65865.5},""timestamp"":65865.5},{""type"":""chart_hover"",""data"":{""x"":1007,""y"":458,""timestamp"":65873.29999998212},""timestamp"":65873.29999998212},{""type"":""chart_hover"",""data"":{""x"":1014,""y"":465,""timestamp"":65889.19999998808},""timestamp"":65889.19999998808},{""type"":""chart_hover"",""data"":{""x"":1016,""y"":467,""timestamp"":65905.09999999404},""timestamp"":65905.09999999404},{""type"":""chart_hover"",""data"":{""x"":1019,""y"":470,""timestamp"":65922.19999998808},""timestamp"":65922.19999998808},{""type"":""chart_hover"",""data"":{""x"":1023,""y"":475,""timestamp"":65939},""timestamp"":65939},{""type"":""chart_hover"",""data"":{""x"":1037,""y"":489,""timestamp"":65955.5},""timestamp"":65955.59999999404},{""type"":""chart_hover"",""data"":{""x"":1065,""y"":519,""timestamp"":65972.09999999404},""timestamp"":65972.09999999404},{""type"":""chart_hover"",""data"":{""x"":1078,""y"":534,""timestamp"":65988.59999999404},""timestamp"":65988.59999999404},{""type"":""chart_hover"",""data"":{""x"":1096,""y"":556,""timestamp"":66004.90000000596},""timestamp"":66004.90000000596},{""type"":""chart_hover"",""data"":{""x"":1098,""y"":559,""timestamp"":66021.5},""timestamp"":66021.5},{""type"":""chart_hover"",""data"":{""x"":1098,""y"":558,""timestamp"":66103.69999998808},""timestamp"":66103.69999998808},{""type"":""chart_hover"",""data"":{""x"":1098,""y"":557,""timestamp"":66107.59999999404},""timestamp"":66107.59999999404},{""type"":""chart_hover"",""data"":{""x"":1097,""y"":556,""timestamp"":66122.90000000596},""timestamp"":66122.90000000596},{""type"":""chart_hover"",""data"":{""x"":1097,""y"":555,""timestamp"":66152.79999998212},""timestamp"":66152.79999998212},{""type"":""chart_click"",""data"":{""x"":1097,""y"":555,""timestamp"":66238.59999999404},""timestamp"":66238.59999999404},{""type"":""chart_hover"",""data"":{""x"":1096,""y"":555,""timestamp"":66254.69999998808},""timestamp"":66254.69999998808},{""type"":""chart_hover"",""data"":{""x"":1096,""y"":554,""timestamp"":66272.29999998212},""timestamp"":66272.29999998212},{""type"":""chart_hover"",""data"":{""x"":1096,""y"":553,""timestamp"":66427.79999998212},""timestamp"":66427.79999998212},{""type"":""chart_hover"",""data"":{""x"":1096,""y"":552,""timestamp"":66438.79999998212},""timestamp"":66438.79999998212},{""type"":""chart_hover"",""data"":{""x"":1095,""y"":551,""timestamp"":66455.29999998212},""timestamp"":66455.29999998212},{""type"":""chart_hover"",""data"":{""x"":1095,""y"":550,""timestamp"":66472.29999998212},""timestamp"":66472.29999998212},{""type"":""chart_hover"",""data"":{""x"":1094,""y"":549,""timestamp"":66522},""timestamp"":66522},{""type"":""chart_hover"",""data"":{""x"":1092,""y"":547,""timestamp"":66538.79999998212},""timestamp"":66538.79999998212},{""type"":""chart_hover"",""data"":{""x"":1092,""y"":546,""timestamp"":66555.40000000596},""timestamp"":66555.40000000596},{""type"":""chart_hover"",""data"":{""x"":1091,""y"":545,""timestamp"":66572},""timestamp"":66572},{""type"":""chart_hover"",""data"":{""x"":1090,""y"":545,""timestamp"":66590.69999998808},""timestamp"":66590.69999998808},{""type"":""chart_hover"",""data"":{""x"":1089,""y"":544,""timestamp"":66605.79999998212},""timestamp"":66605.79999998212},{""type"":""chart_hover"",""data"":{""x"":1088,""y"":544,""timestamp"":66622.40000000596},""timestamp"":66622.40000000596},{""type"":""chart_hover"",""data"":{""x"":1087,""y"":544,""timestamp"":66646.40000000596},""timestamp"":66646.40000000596},{""type"":""chart_hover"",""data"":{""x"":1086,""y"":545,""timestamp"":66731.40000000596},""timestamp"":66731.40000000596},{""type"":""chart_hover"",""data"":{""x"":1085,""y"":547,""timestamp"":66741.09999999404},""timestamp"":66741.09999999404},{""type"":""chart_hover"",""data"":{""x"":1083,""y"":549,""timestamp"":66755.59999999404},""timestamp"":66755.59999999404},{""type"":""chart_hover"",""data"":{""x"":1082,""y"":550,""timestamp"":66880.90000000596},""timestamp"":66880.90000000596},{""type"":""chart_leave"",""data"":{""timestamp"":67289.69999998808},""timestamp"":67289.79999998212},{""type"":""chart_enter"",""data"":{""timestamp"":74930.29999998212},""timestamp"":74930.29999998212},{""type"":""chart_hover"",""data"":{""x"":785,""y"":592,""timestamp"":74930.29999998212},""timestamp"":74930.29999998212},{""type"":""chart_hover"",""data"":{""x"":784,""y"":578,""timestamp"":74947.29999998212},""timestamp"":74947.29999998212},{""type"":""chart_hover"",""data"":{""x"":784,""y"":562,""timestamp"":74964},""timestamp"":74964},{""type"":""chart_hover"",""data"":{""x"":784,""y"":558,""timestamp"":74980.79999998212},""timestamp"":74980.79999998212},{""type"":""chart_hover"",""data"":{""x"":784,""y"":557,""timestamp"":74997.59999999404},""timestamp"":74997.59999999404},{""type"":""chart_hover"",""data"":{""x"":784,""y"":556,""timestamp"":75131.40000000596},""timestamp"":75131.40000000596},{""type"":""chart_hover"",""data"":{""x"":784,""y"":555,""timestamp"":75148},""timestamp"":75148},{""type"":""chart_hover"",""data"":{""x"":784,""y"":554,""timestamp"":76167.29999998212},""timestamp"":76167.29999998212},{""type"":""chart_hover"",""data"":{""x"":784,""y"":553,""timestamp"":76182.79999998212},""timestamp"":76182.79999998212},{""type"":""chart_hover"",""data"":{""x"":784,""y"":552,""timestamp"":76198.40000000596},""timestamp"":76198.40000000596},{""type"":""chart_hover"",""data"":{""x"":786,""y"":550,""timestamp"":76408.90000000596},""timestamp"":76409},{""type"":""chart_hover"",""data"":{""x"":786,""y"":547,""timestamp"":76416.5},""timestamp"":76416.5},{""type"":""chart_hover"",""data"":{""x"":788,""y"":543,""timestamp"":76431.79999998212},""timestamp"":76431.79999998212},{""type"":""chart_hover"",""data"":{""x"":788,""y"":542,""timestamp"":76448.40000000596},""timestamp"":76448.40000000596},{""type"":""chart_hover"",""data"":{""x"":788,""y"":543,""timestamp"":81443.29999998212},""timestamp"":81443.29999998212},{""type"":""chart_hover"",""data"":{""x"":786,""y"":543,""timestamp"":81453.5},""timestamp"":81453.5},{""type"":""chart_hover"",""data"":{""x"":784,""y"":545,""timestamp"":81470.29999998212},""timestamp"":81470.29999998212},{""type"":""chart_hover"",""data"":{""x"":782,""y"":546,""timestamp"":81486.90000000596},""timestamp"":81486.90000000596},{""type"":""chart_hover"",""data"":{""x"":781,""y"":546,""timestamp"":81503.69999998808},""timestamp"":81503.69999998808},{""type"":""chart_hover"",""data"":{""x"":779,""y"":548,""timestamp"":81520.29999998212},""timestamp"":81520.29999998212},{""type"":""chart_hover"",""data"":{""x"":774,""y"":550,""timestamp"":81537.09999999404},""timestamp"":81537.09999999404},{""type"":""chart_hover"",""data"":{""x"":770,""y"":553,""timestamp"":81553.59999999404},""timestamp"":81553.59999999404},{""type"":""chart_hover"",""data"":{""x"":764,""y"":557,""timestamp"":81570.5},""timestamp"":81570.5},{""type"":""chart_hover"",""data"":{""x"":756,""y"":561,""timestamp"":81587},""timestamp"":81587},{""type"":""chart_hover"",""data"":{""x"":742,""y"":569,""timestamp"":81603.79999998212},""timestamp"":81603.79999998212},{""type"":""chart_hover"",""data"":{""x"":726,""y"":578,""timestamp"":81620.5},""timestamp"":81620.5},{""type"":""chart_hover"",""data"":{""x"":691,""y"":597,""timestamp"":81650.19999998808},""timestamp"":81650.19999998808},{""type"":""chart_leave"",""data"":{""timestamp"":81662.40000000596},""timestamp"":81662.40000000596}]",0.0-8.0,5d4bed118cbe900016c1f6d0,,1,,,false,10,,,,1,112950.59999999404,,,true,,,,452199,,,603,,,City B,8,prediction-task,,,,,,true
88,94,0,,,condition_6_pi_to_ensemble,PI → Ensemble,Somewhat Certain,5,,transform_hover,,,,,0,"[]",0.0-9.0,5d4bed118cbe900016c1f6d0,,2,,,true,21,,,,1,35828.79999998212,,,true,,,,488029,0,,0,,,City B,9,prediction-task,,,,,,true
,,,,,,,,,,,,,,,,,0.0-10.0,5d4bed118cbe900016c1f6d0,,,,,,,,0,,,3339,,,,,"
			<div class=""section-intro"">
				<h2>Trust & Experience Assessment</h2>
				<p>Thank you for completing the prediction tasks!</p>
				<p>Now we'd like to understand your experience with the forecast visualization you just used.</p>
			</div>
		",,491369,,,,,,,10,html-button-response,,,,,,
,,,,,condition_6_pi_to_ensemble,PI → Ensemble,,,,transform_hover,,,,,,,0.0-11.0,5d4bed118cbe900016c1f6d0,,2,,,,,"[""navigation_control"",""content_control"",""pace_control"",""company_communication"",""interface_responsiveness"",""customer_communication"",""personal_conversation"",""interface_interaction"",""interface_sensitivity""]","{""navigation_control"":4,""content_control"":5,""pace_control"":5,""company_communication"":4,""interface_responsiveness"":4,""customer_communication"":3,""personal_conversation"":3,""interface_interaction"":3,""interface_sensitivity"":1}",,1,36173.09999999404,,,,,,,527543,,,,,,,11,trust-survey,,,,,,
,,,5,,condition_6_pi_to_ensemble,PI → Ensemble,,,6,transform_hover,,,,,,,0.0-12.0,5d4bed118cbe900016c1f6d0,,2,,,,,"[""skeptical_rating"",""data_trust"",""usability_difficulty"",""comprehension_ease""]","{""skeptical_rating"":1,""data_trust"":5,""usability_difficulty"":1,""comprehension_ease"":4}",,1,12898.300000011921,,2,,,,,540442,,,,,,,12,trust-survey,6,6,2,,,
,,,,,,,,,,,,,,,,,0.0-13.0,5d4bed118cbe900016c1f6d0,,,,,,,,0,,,2066,,,,,"
			<div class=""section-intro"">
				<h2>Background Information</h2>
				<p>We're almost finished! This final section will ask for some background information to help us understand our results.</p>
			</div>
		",,542509,,,,,,,13,html-button-response,,,,,,
,,,,,condition_6_pi_to_ensemble,PI → Ensemble,,,,,,,,,,,0.0-14.0,5d4bed118cbe900016c1f6d0,,,,,,,"[""respect_others"",""good_word_everyone"",""retreat_from_others"",""avoid_contacts""]","{""respect_others"":5,""good_word_everyone"":3,""retreat_from_others"":0,""avoid_contacts"":0}",,,8569.90000000596,,,,,,,551080,,,,,,,14,personality-survey,,,,,,
,,,,,condition_6_pi_to_ensemble,PI → Ensemble,,,,,,,,,,,0.0-15.0,5d4bed118cbe900016c1f6d0,,,,,,,,"{""age"":""34"",""major_field"":""Social Work""}",,,10763,,,,,,,561845,,,,,,,15,survey-text,,,,,,
,,,,,condition_6_pi_to_ensemble,PI → Ensemble,,,,,,,,,,,0.0-16.0,5d4bed118cbe900016c1f6d0,,,,,,,"[0,1]","{""education"":""Bachelor's degree"",""viz_experience"":""Never""}",,,5647,,,,,,,567493,,,,,,,16,survey-multi-choice,,,,,,
,,,,,,,,,,,,,,,,,0.0-17.0,5d4bed118cbe900016c1f6d0,,,,,,,,,,,,,,,,,true,568502,,,,,,,17,fullscreen,,,,,,
,,,,,,,,,,,,,,,,,0.0-18.0,5d4bed118cbe900016c1f6d0,,,,,,,,0,,,8598,,,,,"
            <div class=""debrief"">
                <h2>Thank You!</h2>
                <p>This study investigated how different ways of presenting uncertainty in predictions affect trust and decision-making.</p>
                
                <h3>Study Background:</h3>
                <p>You were randomly assigned to one of nine different visualization conditions. The goal is to understand which formats help people make better decisions and maintain appropriate trust in prediction systems.</p>
                
                <p>The air quality data you saw was synthetic (computer-generated) for research purposes.</p>
                
                <h3>Questions?</h3>
                <p>If you have questions about this research, please contact the research team.</p>
                
                <p>Your participation contributes to understanding how to design better prediction visualizations for real-world applications like weather forecasting, financial predictions, and public health data.</p>
            </div>
        ",,577101,,,,,,,18,html-button-response,,,,,,
,,,,"{""id"":""condition_6_pi_to_ensemble"",""name"":""PI → Ensemble"",""displayFormat"":""transform_hover"",""description"":""PI plot transforms to ensemble plot on hover"",""instructions"":""Shade represents the region that there are 95% chance the air quality falls in this region. Each line represent the prediction from one Forecast Agency.<br><br>Hint: Hover on the lines for more details""}",,,,,,,2025-12-08T21:30:10.053Z,,,,,,,5d4bed118cbe900016c1f6d0,,,true,true,,,,,,,,,,,2025-12-08T21:20:45.871Z,,,,,,,,,,,,,,,,9,
