city_a_estimate,city_b_estimate,click_events,condition,condition_id,condition_name,confidence_label,confidence_rating,data_trust,display_format,end_time,hover_events,interaction_log,interface_trust,internal_node_id,misleading_rating,participant_id,percent_score,phase,phase1_complete,phase2_complete,predictions_shown,probability_estimate,question_order,response,responses,round,rt,rt_total,start_time,stimulus,time_elapsed,time_on_viz,total_interactions,total_questions,total_score,travel_choice,trial_index,trial_type,trust_adjusted,trust_composite,view_history,visualization_literacy_score,visualization_shown
,,,,,,,,,,,,,,0.0-0.0,,,,,,,,,,0,,,855,,,"
	        <div class=""welcome-screen"">
	            <h1>Air Quality Prediction Study</h1>
	            <p>Welcome! You are about to participate in a research study about how people make decisions using air quality predictions. This study examines how different ways of presenting prediction information affect trust and decision-making. The study will take approximately 15 minutes.</p>
	            <div class=""study-info"">
	                <h3>What you'll do:</h3>
	                <ul>
	                    <li>Complete a brief assessment of visualization understanding</li>
	                    <li>Make predictions about air quality in two cities</li>
	                    <li>Answer questions about your confidence and trust</li>
						<li>Report basic demographic data</li>
	                </ul>
	            </div>
	        </div>
	    ",856,,,,,,0,html-button-response,,,,,
,,,,,,,,,,,,,,0.0-1.0,,,,,,,,,,0,,,1053,,,"
	        <div class=""consent-form"">
	            <h2>Consent Form</h2>
	            <div class=""consent-header"">
	                <p><strong>Principal Investigator:</strong> Dr. Cindy Xiong Bearfield, Assistant Professor</p>
	                <p><strong>Study Title:</strong> Trusting What We See: Effect of Interactivity in Visual Data Analysis</p>
	                <p><strong>Supported By:</strong> Georgia Institute of Technology</p>
	            </div>
	            
	            <div class=""consent-details"">
	                <h3>WHAT IS THIS FORM?</h3>
	                <p>This form is called a Consent Form. It will give you information about the study so you can make an informed decision about participation in this research. We encourage you to take some time to think this over and ask questions now and at any other time. If you decide to participate, you will be asked to sign this form and you will be given a copy for your records.</p>

	                <h3>WHAT ARE SOME OF THE IMPORTANT ASPECTS OF THIS RESEARCH STUDY THAT I SHOULD BE AWARE OF?</h3>
	                <ul>
	                    <li>Whether or not you take part is up to you.</li>
	                    <li>You can choose not to take part.</li>
	                    <li>You can agree to take part and later change your mind.</li>
	                    <li>Your decision will not be held against you.</li>
	                </ul>

	                <h3>WHY ARE WE DOING THIS RESEARCH STUDY?</h3>
	                <p>The purpose of our study is to explore the visualization design space so we can understand how people perceive, interpret, and make decisions from visualizations. The results from this study can help us design visualizations and visualization guidelines to help people better communicate and understand data.</p>

	                <h3>WHO CAN PARTICIPATE IN THIS RESEARCH STUDY?</h3>
	                <p>Participants in this study must be at least 18 years of age or older and have general familiarity with using web-based systems. Participants currently outside of the U.S. cannot participate in this study (e.g. in the European Union or China).</p>

	                <h3>WHAT COMPENSATION I WILL RECEIVE?</h3>
	                <p>You will receive payment through Prolific worth $12/hour for participating in this study. We expect this study to take less than 20 minutes. Your participation is entirely voluntary. You are free to withdraw at any time, and if you do, you will receive partial payment for your time.</p>

	                <h3>HOW MANY PEOPLE WILL PARTICIPATE?</h3>
	                <p>We expect about 200 people will be in this research study.</p>

	                <h3>WHAT WILL I BE ASKED TO DO AND HOW MUCH TIME WILL IT TAKE?</h3>
	                <p>We will show you several data visualizations or components of a visualization and ask you to perform a visual task with the visualization on a computer screen, such as counting, searching, recognizing, memorizing, or describing the information presented to you. We may also ask you to fill out questionnaires concerning your thoughts regarding the visualization you saw. We expect that you will be in this research study to take between 15 and 60 minutes. We expect this study to be a one-off session and will not contact you regarding the study itself in the future.</p>

	                <h3>WILL BEING IN THIS RESEARCH STUDY HELP ME IN ANY WAY?</h3>
	                <p>You are not likely to have any direct benefit from being in this research study. The potential benefits to you from participation may include learning about how data visualization research is conducted, and you may learn about issues of current interest in data visualization and psychology.</p>

	                <h3>WHAT ARE MY RISKS OF BEING IN THIS RESEARCH STUDY?</h3>
	                <p>Your participation in this study does not involve any risks other than what you would encounter in daily life. In particular, you may experience fatigue or boredom, however, you may take breaks between tasks. The effects of participating should be comparable to those you would experience from viewing a computer monitor and using a keyboard. You may withdraw at any time.</p>

	                <h3>HOW WILL MY PERSONAL INFORMATION BE PROTECTED?</h3>
	                <p>We will comply with any applicable laws and regulations regarding confidentiality. To make sure that this research is being carried out in the proper way, the Georgia Institute of Technology IRB may review study records. The Office of Human Research Protections may also look at study records.</p>
	                <p>Efforts will be made to limit the use and disclosure of your personal information, including research study records, to people who need to review this information. We cannot promise complete secrecy. Organizations that may inspect and copy your information include the IRB and other representatives of this institution. Please be notified that our data privacy policy is based on U.S. regulations. Participants who are out of the U.S. might be excluded due to different data privacy requirements.</p>
	                <p><strong>Data Sharing:</strong> De-identified data from this study will be shared among the GATech research team, as well as the research community at large to advance science and health. We will remove or code any personal information that could identify you before files are shared with other researchers to ensure that, by current scientific standards and known methods, no one will be able to identify you from the information we share. Despite these measures, we cannot guarantee the anonymity of your personal data.</p>

	                <h3>WILL I BE GIVEN ANY MONEY OR OTHER COMPENSATION FOR BEING IN THIS RESEARCH STUDY?</h3>
	                <p>If you agree to take part in this research study, we will provide compensation. You will be paid in accordance with the stated policies of Amazon Mechanical Turk and/or Prolific.com. Payment will be made upon completion and acceptance of tasks that you have agreed to complete and you will be paid via Mechanical Turk or Prolific.com. If you choose to withdraw from the study, you will not be compensated for your participation.</p>

	                <h3>WHAT ELSE DO I NEED TO KNOW?</h3>
	                <p>We might be using attention check questions in our surveys. If you miss 2 or more attention check questions, your HIT will not be accepted and you will not be compensated.</p>

	                <h3>WHO CAN I TALK TO IF I HAVE QUESTIONS?</h3>
	                <p>If you have any questions about the content of this research project, you may contact Dr. Cindy Xiong Bearfield at cxiong@gatech.edu, or contact Songwen Hu at shu343@gatech.edu. If you have any questions about your rights as a research subject, you may also contact Georgia Institute of Technology Office of Research Integrity Assurance at IRB@gatech.edu.</p>

	                <h3>WHAT HAPPENS IF I SAY YES, BUT I CHANGE MY MIND LATER?</h3>
	                <p>You can decide not to participate in this research or you can start and then decide to leave the research at any time and it will not be held against you. To do so, simply exit the experiment. Any data already collected will not be saved.</p>

	                <p><strong>By clicking ""I agree"" below you are indicating that you are at least 18 years old, currently in the U.S., have read this consent form, and agree to participate in this research study. Please print a copy of this page for your records.</strong></p>
	            </div>
	        </div>
	    ",1910,,,,,,1,html-button-response,,,,,
,,,,,,,,,,,,,,0.0-2.0,,,,,,,,,,0,,,21138,,,"
	        <div class=""vis-literacy-intro"">
	            <h2>Visualization Assessment</h2>
	            <p>Before we begin the main study, we'd like to assess your ability to read and interpret data visualizations.</p>
	            
	            <div class=""assessment-info"">
	                <h3>What you'll do:</h3>
	                <ul>
	                    <li>View 12 different data visualizations (charts and graphs)</li>
	                    <li>Answer questions about what each visualization shows</li>
	                    <li>Take your time to examine each chart carefully</li>
	                </ul>
	                
	                <p><strong>This assessment will take approximately 5-10 minutes.</strong></p>
	                <p>There are no right or wrong interpretations - we're interested in how you read visualizations.</p>
	            </div>
	        </div>
	    ",23048,,,,,,2,html-button-response,,,,,
,,,,condition_7_buggy,Buggy Control,,,,,,,,,0.0-3.0,,,25,,,,,,,,"[{""question_id"":""minivlat_1"",""question_type"":""line_chart"",""question_text"":""What was the price range of a barrel of oil in 2020?"",""response"":0,""correct_answer"":0,""is_correct"":true,""rt"":52718.799999952316},{""question_id"":""minivlat_2"",""question_type"":""bar_chart"",""question_text"":""What is the range of the average internet speed in Asia?"",""response"":0,""correct_answer"":3,""is_correct"":false,""rt"":11177.700000047684},{""question_id"":""minivlat_3"",""question_type"":""stacked_bar"",""question_text"":""What is the cost of peanuts in Las Vegas?"",""response"":0,""correct_answer"":1,""is_correct"":false,""rt"":4610.099999964237},{""question_id"":""minivlat_4"",""question_type"":""stacked_100_bar"",""question_text"":""What is the approval rating of Republicans among postgraduate-educated people?"",""response"":0,""correct_answer"":1,""is_correct"":false,""rt"":1887.1000000238419},{""question_id"":""minivlat_5"",""question_type"":""pie_chart"",""question_text"":""About what is the global smartphone market share of Samsung?"",""response"":0,""correct_answer"":1,""is_correct"":false,""rt"":2319.899999976158},{""question_id"":""minivlat_6"",""question_type"":""histogram"",""question_text"":""How many people have rated the taxi between 4.2 and 4.4?"",""response"":0,""correct_answer"":1,""is_correct"":false,""rt"":2173.699999988079},{""question_id"":""minivlat_7"",""question_type"":""scatter_plot"",""question_text"":""There is a negative linear relationship between the height and the weight of the 85 males."",""response"":0,""correct_answer"":1,""is_correct"":false,""rt"":3542.600000023842},{""question_id"":""minivlat_8"",""question_type"":""area_chart"",""question_text"":""What was the average price of a pound of coffee beans in September 2013?"",""response"":1,""correct_answer"":0,""is_correct"":false,""rt"":2373.599999964237},{""question_id"":""minivlat_9"",""question_type"":""stacked_area"",""question_text"":""What was the number of girls named 'Olivia' in 2010 in the UK?"",""response"":1,""correct_answer"":2,""is_correct"":false,""rt"":3729.900000035763},{""question_id"":""minivlat_10"",""question_type"":""bubble_chart"",""question_text"":""What is the total length of the metro system in Beijing?"",""response"":0,""correct_answer"":0,""is_correct"":true,""rt"":2259.699999988079},{""question_id"":""minivlat_11"",""question_type"":""choropleth"",""question_text"":""In 2015, the unemployment rate for Washington (WA) was higher than that of Wisconsin (WI)."",""response"":0,""correct_answer"":0,""is_correct"":true,""rt"":1850.699999988079},{""question_id"":""minivlat_12"",""question_type"":""bubble_chart_multi"",""question_text"":""For which website was the number of unique visitors the largest in 2010?"",""response"":2,""correct_answer"":3,""is_correct"":false,""rt"":1720.699999988079}]",,,90364.4999999404,,,113413,,,12,3,,3,vis-literacy,,,,,
,,,,,,,,,,,,,,0.0-4.0,,,,,,,,,,,,,54159,,,,167574,,,,,,4,instructions,,,"[{""page_index"":0,""viewing_time"":54159}]",,
,,,,,,,,,,,,,,0.0-5.0,,,,,,,,,,0,,,44424,,,"
			<div class=""phase-intro"">
				<h2>Phase 1: Initial Assessment</h2>
				<p>In this first phase, you will make predictions about air quality based on <strong>historical data only</strong>.</p>
				<p>You will see past air quality trends for both cities, but <strong>no future predictions</strong>.</p>
				<p>Based on the historical patterns you observe, you'll be asked to estimate which city is likely to have better air quality in the future.</p>
				<br>
				<p><strong>Remember:</strong> Higher values = Better air quality (cleaner air)</p>
			</div>
		",211999,,,,,,5,html-button-response,,,,,
110,110,,,condition_0_historical,Historical Only,Somewhat Uncertain,3,,historical_only,,,"[{""type"":""chart_enter"",""data"":{""timestamp"":120},""timestamp"":120.10000002384186},{""type"":""chart_hover"",""data"":{""x"":990,""y"":467,""timestamp"":236.80000001192093},""timestamp"":236.80000001192093},{""type"":""chart_hover"",""data"":{""x"":992,""y"":467,""timestamp"":245.20000004768372},""timestamp"":245.20000004768372},{""type"":""chart_hover"",""data"":{""x"":1000,""y"":467,""timestamp"":253.30000001192093},""timestamp"":253.30000001192093},{""type"":""chart_hover"",""data"":{""x"":1005,""y"":467,""timestamp"":261.7000000476837},""timestamp"":261.7000000476837},{""type"":""chart_hover"",""data"":{""x"":1010,""y"":467,""timestamp"":269.10000002384186},""timestamp"":269.10000002384186},{""type"":""chart_hover"",""data"":{""x"":1015,""y"":467,""timestamp"":278.4000000357628},""timestamp"":278.4000000357628},{""type"":""chart_hover"",""data"":{""x"":1019,""y"":467,""timestamp"":286.7000000476837},""timestamp"":286.7000000476837},{""type"":""chart_hover"",""data"":{""x"":1021,""y"":467,""timestamp"":294.9000000357628},""timestamp"":294.9000000357628},{""type"":""chart_hover"",""data"":{""x"":1022,""y"":467,""timestamp"":653.9000000357628},""timestamp"":653.9000000357628},{""type"":""chart_hover"",""data"":{""x"":1022,""y"":467,""timestamp"":664.6000000238419},""timestamp"":664.6000000238419},{""type"":""chart_hover"",""data"":{""x"":1024,""y"":467,""timestamp"":670.1000000238419},""timestamp"":670.1000000238419},{""type"":""chart_hover"",""data"":{""x"":1025,""y"":467,""timestamp"":678.5},""timestamp"":678.5},{""type"":""chart_hover"",""data"":{""x"":1026,""y"":466,""timestamp"":686.7000000476837},""timestamp"":686.7000000476837},{""type"":""chart_hover"",""data"":{""x"":1026,""y"":465,""timestamp"":702.7000000476837},""timestamp"":702.7000000476837},{""type"":""chart_hover"",""data"":{""x"":1025,""y"":465,""timestamp"":706},""timestamp"":706},{""type"":""chart_hover"",""data"":{""x"":1023,""y"":464,""timestamp"":712.3000000119209},""timestamp"":712.3000000119209},{""type"":""chart_hover"",""data"":{""x"":1020,""y"":463,""timestamp"":720.2000000476837},""timestamp"":720.2000000476837},{""type"":""chart_hover"",""data"":{""x"":1011,""y"":461,""timestamp"":728.5},""timestamp"":728.5},{""type"":""chart_hover"",""data"":{""x"":1001,""y"":459,""timestamp"":736.6000000238419},""timestamp"":736.7000000476837},{""type"":""chart_hover"",""data"":{""x"":990,""y"":458,""timestamp"":745.4000000357628},""timestamp"":745.4000000357628},{""type"":""chart_hover"",""data"":{""x"":979,""y"":455,""timestamp"":753.5},""timestamp"":753.5},{""type"":""chart_hover"",""data"":{""x"":966,""y"":452,""timestamp"":761.7000000476837},""timestamp"":761.7000000476837},{""type"":""chart_hover"",""data"":{""x"":953,""y"":449,""timestamp"":770.2000000476837},""timestamp"":770.2000000476837},{""type"":""chart_hover"",""data"":{""x"":949,""y"":447,""timestamp"":779.6000000238419},""timestamp"":779.6000000238419},{""type"":""chart_hover"",""data"":{""x"":923,""y"":441,""timestamp"":786.6000000238419},""timestamp"":786.6000000238419},{""type"":""chart_hover"",""data"":{""x"":914,""y"":438,""timestamp"":795.2000000476837},""timestamp"":795.2000000476837},{""type"":""chart_hover"",""data"":{""x"":910,""y"":437,""timestamp"":803.4000000357628},""timestamp"":803.4000000357628},{""type"":""chart_hover"",""data"":{""x"":861,""y"":426,""timestamp"":811.8000000119209},""timestamp"":811.8000000119209},{""type"":""chart_hover"",""data"":{""x"":839,""y"":422,""timestamp"":820.1000000238419},""timestamp"":820.1000000238419},{""type"":""chart_hover"",""data"":{""x"":813,""y"":417,""timestamp"":828.5},""timestamp"":828.5},{""type"":""chart_hover"",""data"":{""x"":791,""y"":414,""timestamp"":836.7000000476837},""timestamp"":836.7000000476837},{""type"":""chart_hover"",""data"":{""x"":770,""y"":411,""timestamp"":845},""timestamp"":845},{""type"":""chart_hover"",""data"":{""x"":753,""y"":409,""timestamp"":853.5},""timestamp"":853.5},{""type"":""chart_hover"",""data"":{""x"":735,""y"":406,""timestamp"":862.1000000238419},""timestamp"":862.1000000238419},{""type"":""chart_hover"",""data"":{""x"":723,""y"":405,""timestamp"":870.1000000238419},""timestamp"":870.1000000238419},{""type"":""chart_hover"",""data"":{""x"":713,""y"":403,""timestamp"":878.5},""timestamp"":878.5},{""type"":""chart_hover"",""data"":{""x"":701,""y"":402,""timestamp"":887.5},""timestamp"":887.5},{""type"":""chart_hover"",""data"":{""x"":695,""y"":402,""timestamp"":894.5},""timestamp"":894.5},{""type"":""chart_hover"",""data"":{""x"":688,""y"":401,""timestamp"":903.5},""timestamp"":903.5},{""type"":""chart_hover"",""data"":{""x"":684,""y"":400,""timestamp"":912.4000000357628},""timestamp"":912.4000000357628},{""type"":""chart_hover"",""data"":{""x"":682,""y"":400,""timestamp"":920},""timestamp"":920},{""type"":""chart_hover"",""data"":{""x"":680,""y"":400,""timestamp"":928.3000000119209},""timestamp"":928.3000000119209},{""type"":""chart_hover"",""data"":{""x"":682,""y"":400,""timestamp"":1428.800000011921},""timestamp"":1428.9000000357628},{""type"":""chart_hover"",""data"":{""x"":683,""y"":400,""timestamp"":1437.2000000476837},""timestamp"":1437.2000000476837},{""type"":""chart_hover"",""data"":{""x"":684,""y"":400,""timestamp"":1445.1000000238419},""timestamp"":1445.1000000238419},{""type"":""chart_hover"",""data"":{""x"":686,""y"":400,""timestamp"":1453.9000000357628},""timestamp"":1453.9000000357628},{""type"":""chart_hover"",""data"":{""x"":686,""y"":400,""timestamp"":1461.9000000357628},""timestamp"":1461.9000000357628},{""type"":""chart_hover"",""data"":{""x"":689,""y"":400,""timestamp"":1470.5},""timestamp"":1470.5},{""type"":""chart_hover"",""data"":{""x"":692,""y"":400,""timestamp"":1478.9000000357628},""timestamp"":1478.9000000357628},{""type"":""chart_hover"",""data"":{""x"":694,""y"":400,""timestamp"":1486.9000000357628},""timestamp"":1486.9000000357628},{""type"":""chart_hover"",""data"":{""x"":698,""y"":400,""timestamp"":1495.1000000238419},""timestamp"":1495.1000000238419},{""type"":""chart_hover"",""data"":{""x"":701,""y"":401,""timestamp"":1504.2000000476837},""timestamp"":1504.2000000476837},{""type"":""chart_hover"",""data"":{""x"":706,""y"":401,""timestamp"":1511.6000000238419},""timestamp"":1511.6000000238419},{""type"":""chart_hover"",""data"":{""x"":709,""y"":402,""timestamp"":1520.300000011921},""timestamp"":1520.300000011921},{""type"":""chart_hover"",""data"":{""x"":713,""y"":402,""timestamp"":1528.4000000357628},""timestamp"":1528.4000000357628},{""type"":""chart_hover"",""data"":{""x"":717,""y"":402,""timestamp"":1536.7000000476837},""timestamp"":1536.7000000476837},{""type"":""chart_hover"",""data"":{""x"":720,""y"":403,""timestamp"":1545.1000000238419},""timestamp"":1545.1000000238419},{""type"":""chart_hover"",""data"":{""x"":723,""y"":404,""timestamp"":1553.4000000357628},""timestamp"":1553.4000000357628},{""type"":""chart_hover"",""data"":{""x"":726,""y"":405,""timestamp"":1561.7000000476837},""timestamp"":1561.7000000476837},{""type"":""chart_hover"",""data"":{""x"":729,""y"":406,""timestamp"":1570.1000000238419},""timestamp"":1570.1000000238419},{""type"":""chart_hover"",""data"":{""x"":733,""y"":407,""timestamp"":1578.4000000357628},""timestamp"":1578.4000000357628},{""type"":""chart_hover"",""data"":{""x"":735,""y"":409,""timestamp"":1586.7000000476837},""timestamp"":1586.7000000476837},{""type"":""chart_hover"",""data"":{""x"":737,""y"":409,""timestamp"":1595.1000000238419},""timestamp"":1595.1000000238419},{""type"":""chart_hover"",""data"":{""x"":738,""y"":410,""timestamp"":1603.300000011921},""timestamp"":1603.300000011921},{""type"":""chart_hover"",""data"":{""x"":738,""y"":411,""timestamp"":1611.7000000476837},""timestamp"":1611.7000000476837},{""type"":""chart_hover"",""data"":{""x"":738,""y"":412,""timestamp"":1620},""timestamp"":1620},{""type"":""chart_hover"",""data"":{""x"":738,""y"":413,""timestamp"":1628.300000011921},""timestamp"":1628.300000011921},{""type"":""chart_hover"",""data"":{""x"":738,""y"":414,""timestamp"":1748},""timestamp"":1748},{""type"":""chart_hover"",""data"":{""x"":740,""y"":414,""timestamp"":1953.9000000357628},""timestamp"":1953.9000000357628},{""type"":""chart_hover"",""data"":{""x"":743,""y"":411,""timestamp"":1962.7000000476837},""timestamp"":1962.7000000476837},{""type"":""chart_hover"",""data"":{""x"":747,""y"":408,""timestamp"":1970.2000000476837},""timestamp"":1970.2000000476837},{""type"":""chart_hover"",""data"":{""x"":751,""y"":403,""timestamp"":1978.800000011921},""timestamp"":1978.800000011921},{""type"":""chart_hover"",""data"":{""x"":756,""y"":398,""timestamp"":1987.1000000238419},""timestamp"":1987.1000000238419},{""type"":""chart_hover"",""data"":{""x"":763,""y"":392,""timestamp"":1995.7000000476837},""timestamp"":1995.7000000476837},{""type"":""chart_hover"",""data"":{""x"":770,""y"":385,""timestamp"":2003.300000011921},""timestamp"":2003.300000011921},{""type"":""chart_hover"",""data"":{""x"":777,""y"":378,""timestamp"":2011.800000011921},""timestamp"":2011.800000011921},{""type"":""chart_hover"",""data"":{""x"":785,""y"":371,""timestamp"":2020.5},""timestamp"":2020.5},{""type"":""chart_hover"",""data"":{""x"":793,""y"":363,""timestamp"":2028.4000000357628},""timestamp"":2028.4000000357628},{""type"":""chart_hover"",""data"":{""x"":800,""y"":355,""timestamp"":2036.7000000476837},""timestamp"":2036.7000000476837},{""type"":""chart_hover"",""data"":{""x"":807,""y"":347,""timestamp"":2045.2000000476837},""timestamp"":2045.2000000476837},{""type"":""chart_hover"",""data"":{""x"":813,""y"":339,""timestamp"":2053.5},""timestamp"":2053.5},{""type"":""chart_hover"",""data"":{""x"":819,""y"":331,""timestamp"":2061.800000011921},""timestamp"":2061.800000011921},{""type"":""chart_hover"",""data"":{""x"":825,""y"":322,""timestamp"":2070.100000023842},""timestamp"":2070.100000023842},{""type"":""chart_hover"",""data"":{""x"":827,""y"":318,""timestamp"":2078.600000023842},""timestamp"":2078.600000023842},{""type"":""chart_hover"",""data"":{""x"":834,""y"":304,""timestamp"":2086.800000011921},""timestamp"":2086.800000011921},{""type"":""chart_hover"",""data"":{""x"":839,""y"":295,""timestamp"":2095.100000023842},""timestamp"":2095.100000023842},{""type"":""chart_hover"",""data"":{""x"":843,""y"":286,""timestamp"":2103.2000000476837},""timestamp"":2103.2000000476837},{""type"":""chart_hover"",""data"":{""x"":847,""y"":278,""timestamp"":2111.7000000476837},""timestamp"":2111.7000000476837},{""type"":""chart_hover"",""data"":{""x"":851,""y"":270,""timestamp"":2120},""timestamp"":2120},{""type"":""chart_hover"",""data"":{""x"":854,""y"":264,""timestamp"":2128.300000011921},""timestamp"":2128.300000011921},{""type"":""chart_hover"",""data"":{""x"":856,""y"":259,""timestamp"":2136.600000023842},""timestamp"":2136.600000023842},{""type"":""chart_hover"",""data"":{""x"":858,""y"":255,""timestamp"":2145},""timestamp"":2145},{""type"":""chart_hover"",""data"":{""x"":860,""y"":251,""timestamp"":2153.300000011921},""timestamp"":2153.300000011921},{""type"":""chart_hover"",""data"":{""x"":861,""y"":248,""timestamp"":2161.7000000476837},""timestamp"":2161.7000000476837},{""type"":""chart_hover"",""data"":{""x"":862,""y"":247,""timestamp"":2170.400000035763},""timestamp"":2170.400000035763},{""type"":""chart_hover"",""data"":{""x"":863,""y"":246,""timestamp"":2178.300000011921},""timestamp"":2178.300000011921},{""type"":""chart_hover"",""data"":{""x"":865,""y"":245,""timestamp"":2186.600000023842},""timestamp"":2186.600000023842},{""type"":""chart_hover"",""data"":{""x"":868,""y"":245,""timestamp"":2195},""timestamp"":2195},{""type"":""chart_hover"",""data"":{""x"":871,""y"":244,""timestamp"":2203.300000011921},""timestamp"":2203.300000011921},{""type"":""chart_hover"",""data"":{""x"":875,""y"":243,""timestamp"":2211.7000000476837},""timestamp"":2211.7000000476837},{""type"":""chart_hover"",""data"":{""x"":882,""y"":243,""timestamp"":2220.100000023842},""timestamp"":2220.100000023842},{""type"":""chart_hover"",""data"":{""x"":889,""y"":242,""timestamp"":2228.300000011921},""timestamp"":2228.300000011921},{""type"":""chart_hover"",""data"":{""x"":899,""y"":242,""timestamp"":2236.7000000476837},""timestamp"":2236.7000000476837},{""type"":""chart_hover"",""data"":{""x"":910,""y"":241,""timestamp"":2245.2000000476837},""timestamp"":2245.2000000476837},{""type"":""chart_hover"",""data"":{""x"":921,""y"":241,""timestamp"":2253.400000035763},""timestamp"":2253.400000035763},{""type"":""chart_hover"",""data"":{""x"":932,""y"":241,""timestamp"":2261.7000000476837},""timestamp"":2261.7000000476837},{""type"":""chart_hover"",""data"":{""x"":943,""y"":240,""timestamp"":2270},""timestamp"":2270},{""type"":""chart_hover"",""data"":{""x"":953,""y"":240,""timestamp"":2278.300000011921},""timestamp"":2278.300000011921},{""type"":""chart_hover"",""data"":{""x"":961,""y"":240,""timestamp"":2287.300000011921},""timestamp"":2287.300000011921},{""type"":""chart_hover"",""data"":{""x"":966,""y"":240,""timestamp"":2295},""timestamp"":2295},{""type"":""chart_hover"",""data"":{""x"":970,""y"":241,""timestamp"":2303.600000023842},""timestamp"":2303.600000023842},{""type"":""chart_hover"",""data"":{""x"":972,""y"":241,""timestamp"":2311.2000000476837},""timestamp"":2311.2000000476837},{""type"":""chart_hover"",""data"":{""x"":973,""y"":242,""timestamp"":2320},""timestamp"":2320},{""type"":""chart_hover"",""data"":{""x"":973,""y"":243,""timestamp"":2328.300000011921},""timestamp"":2328.300000011921},{""type"":""chart_hover"",""data"":{""x"":973,""y"":245,""timestamp"":2336.600000023842},""timestamp"":2336.600000023842},{""type"":""chart_hover"",""data"":{""x"":973,""y"":246,""timestamp"":2345.100000023842},""timestamp"":2345.100000023842},{""type"":""chart_hover"",""data"":{""x"":973,""y"":248,""timestamp"":2353.400000035763},""timestamp"":2353.400000035763},{""type"":""chart_hover"",""data"":{""x"":973,""y"":248,""timestamp"":2361.600000023842},""timestamp"":2361.600000023842},{""type"":""chart_hover"",""data"":{""x"":973,""y"":250,""timestamp"":2369.900000035763},""timestamp"":2369.900000035763},{""type"":""chart_hover"",""data"":{""x"":973,""y"":251,""timestamp"":2378.300000011921},""timestamp"":2378.300000011921},{""type"":""chart_hover"",""data"":{""x"":973,""y"":252,""timestamp"":2387.600000023842},""timestamp"":2387.600000023842},{""type"":""chart_hover"",""data"":{""x"":973,""y"":253,""timestamp"":2395},""timestamp"":2395},{""type"":""chart_hover"",""data"":{""x"":973,""y"":254,""timestamp"":2420},""timestamp"":2420},{""type"":""chart_hover"",""data"":{""x"":973,""y"":254,""timestamp"":2797.400000035763},""timestamp"":2797.400000035763},{""type"":""chart_hover"",""data"":{""x"":973,""y"":255,""timestamp"":2803.600000023842},""timestamp"":2803.600000023842},{""type"":""chart_hover"",""data"":{""x"":973,""y"":255,""timestamp"":2811.900000035763},""timestamp"":2811.900000035763},{""type"":""chart_hover"",""data"":{""x"":973,""y"":256,""timestamp"":2820.600000023842},""timestamp"":2820.600000023842},{""type"":""chart_hover"",""data"":{""x"":972,""y"":257,""timestamp"":2829},""timestamp"":2829},{""type"":""chart_hover"",""data"":{""x"":972,""y"":259,""timestamp"":2837.100000023842},""timestamp"":2837.100000023842},{""type"":""chart_hover"",""data"":{""x"":971,""y"":260,""timestamp"":2845.600000023842},""timestamp"":2845.600000023842},{""type"":""chart_hover"",""data"":{""x"":970,""y"":262,""timestamp"":2854.100000023842},""timestamp"":2854.100000023842},{""type"":""chart_hover"",""data"":{""x"":969,""y"":262,""timestamp"":2863},""timestamp"":2863.100000023842},{""type"":""chart_hover"",""data"":{""x"":967,""y"":264,""timestamp"":2870.2000000476837},""timestamp"":2870.2000000476837},{""type"":""chart_hover"",""data"":{""x"":966,""y"":265,""timestamp"":2878.300000011921},""timestamp"":2878.300000011921},{""type"":""chart_hover"",""data"":{""x"":966,""y"":267,""timestamp"":2887.300000011921},""timestamp"":2887.300000011921},{""type"":""chart_hover"",""data"":{""x"":965,""y"":268,""timestamp"":2895.100000023842},""timestamp"":2895.100000023842},{""type"":""chart_hover"",""data"":{""x"":964,""y"":269,""timestamp"":2903.400000035763},""timestamp"":2903.400000035763},{""type"":""chart_hover"",""data"":{""x"":963,""y"":269,""timestamp"":2911.800000011921},""timestamp"":2911.800000011921},{""type"":""chart_hover"",""data"":{""x"":962,""y"":269,""timestamp"":2920.300000011921},""timestamp"":2920.300000011921},{""type"":""chart_hover"",""data"":{""x"":961,""y"":269,""timestamp"":2928.5},""timestamp"":2928.5},{""type"":""chart_hover"",""data"":{""x"":960,""y"":270,""timestamp"":2936.600000023842},""timestamp"":2936.600000023842},{""type"":""chart_hover"",""data"":{""x"":959,""y"":270,""timestamp"":2945.100000023842},""timestamp"":2945.100000023842},{""type"":""chart_hover"",""data"":{""x"":959,""y"":270,""timestamp"":2955.2000000476837},""timestamp"":2955.2000000476837},{""type"":""chart_hover"",""data"":{""x"":958,""y"":270,""timestamp"":2961.7000000476837},""timestamp"":2961.7000000476837},{""type"":""chart_hover"",""data"":{""x"":957,""y"":271,""timestamp"":2969.900000035763},""timestamp"":2969.900000035763},{""type"":""chart_hover"",""data"":{""x"":956,""y"":271,""timestamp"":2979.100000023842},""timestamp"":2979.100000023842},{""type"":""chart_hover"",""data"":{""x"":955,""y"":272,""timestamp"":2986.900000035763},""timestamp"":2986.900000035763},{""type"":""chart_hover"",""data"":{""x"":954,""y"":272,""timestamp"":2998.300000011921},""timestamp"":2998.400000035763},{""type"":""chart_hover"",""data"":{""x"":954,""y"":273,""timestamp"":3003.300000011921},""timestamp"":3003.300000011921},{""type"":""chart_hover"",""data"":{""x"":953,""y"":274,""timestamp"":3028.400000035763},""timestamp"":3028.400000035763},{""type"":""chart_hover"",""data"":{""x"":952,""y"":274,""timestamp"":3036.600000023842},""timestamp"":3036.600000023842},{""type"":""chart_hover"",""data"":{""x"":952,""y"":275,""timestamp"":3061.600000023842},""timestamp"":3061.600000023842},{""type"":""chart_hover"",""data"":{""x"":952,""y"":276,""timestamp"":3181.900000035763},""timestamp"":3181.900000035763},{""type"":""chart_hover"",""data"":{""x"":951,""y"":276,""timestamp"":3195.2000000476837},""timestamp"":3195.2000000476837},{""type"":""chart_hover"",""data"":{""x"":951,""y"":277,""timestamp"":3220.2000000476837},""timestamp"":3220.2000000476837},{""type"":""chart_hover"",""data"":{""x"":951,""y"":278,""timestamp"":3228.400000035763},""timestamp"":3228.400000035763},{""type"":""chart_hover"",""data"":{""x"":951,""y"":279,""timestamp"":3241.800000011921},""timestamp"":3241.800000011921},{""type"":""chart_hover"",""data"":{""x"":951,""y"":280,""timestamp"":3338.600000023842},""timestamp"":3338.600000023842},{""type"":""chart_hover"",""data"":{""x"":951,""y"":281,""timestamp"":3404},""timestamp"":3404},{""type"":""chart_hover"",""data"":{""x"":951,""y"":282,""timestamp"":3412.100000023842},""timestamp"":3412.100000023842},{""type"":""chart_hover"",""data"":{""x"":952,""y"":284,""timestamp"":3420},""timestamp"":3420.100000023842},{""type"":""chart_hover"",""data"":{""x"":952,""y"":286,""timestamp"":3428.400000035763},""timestamp"":3428.400000035763},{""type"":""chart_hover"",""data"":{""x"":953,""y"":288,""timestamp"":3436.800000011921},""timestamp"":3436.800000011921},{""type"":""chart_hover"",""data"":{""x"":954,""y"":290,""timestamp"":3445.2000000476837},""timestamp"":3445.2000000476837},{""type"":""chart_hover"",""data"":{""x"":955,""y"":291,""timestamp"":3453.5},""timestamp"":3453.5},{""type"":""chart_hover"",""data"":{""x"":956,""y"":293,""timestamp"":3462.7000000476837},""timestamp"":3462.7000000476837},{""type"":""chart_hover"",""data"":{""x"":956,""y"":295,""timestamp"":3469.7000000476837},""timestamp"":3469.7000000476837},{""type"":""chart_hover"",""data"":{""x"":956,""y"":297,""timestamp"":3478.400000035763},""timestamp"":3478.400000035763},{""type"":""chart_hover"",""data"":{""x"":956,""y"":298,""timestamp"":3486.800000011921},""timestamp"":3486.800000011921},{""type"":""chart_hover"",""data"":{""x"":957,""y"":299,""timestamp"":3495},""timestamp"":3495},{""type"":""chart_hover"",""data"":{""x"":956,""y"":302,""timestamp"":3503.300000011921},""timestamp"":3503.300000011921},{""type"":""chart_hover"",""data"":{""x"":955,""y"":305,""timestamp"":3511.800000011921},""timestamp"":3511.800000011921},{""type"":""chart_hover"",""data"":{""x"":954,""y"":311,""timestamp"":3520.2000000476837},""timestamp"":3520.2000000476837},{""type"":""chart_hover"",""data"":{""x"":953,""y"":316,""timestamp"":3528.5},""timestamp"":3528.5},{""type"":""chart_hover"",""data"":{""x"":953,""y"":321,""timestamp"":3536.7000000476837},""timestamp"":3536.7000000476837},{""type"":""chart_hover"",""data"":{""x"":953,""y"":326,""timestamp"":3545.100000023842},""timestamp"":3545.100000023842},{""type"":""chart_hover"",""data"":{""x"":952,""y"":333,""timestamp"":3553.600000023842},""timestamp"":3553.600000023842},{""type"":""chart_hover"",""data"":{""x"":951,""y"":340,""timestamp"":3561.900000035763},""timestamp"":3561.900000035763},{""type"":""chart_hover"",""data"":{""x"":949,""y"":347,""timestamp"":3570.100000023842},""timestamp"":3570.100000023842},{""type"":""chart_hover"",""data"":{""x"":948,""y"":354,""timestamp"":3578.400000035763},""timestamp"":3578.400000035763},{""type"":""chart_hover"",""data"":{""x"":946,""y"":364,""timestamp"":3587.2000000476837},""timestamp"":3587.2000000476837},{""type"":""chart_hover"",""data"":{""x"":946,""y"":373,""timestamp"":3595.300000011921},""timestamp"":3595.300000011921},{""type"":""chart_hover"",""data"":{""x"":945,""y"":382,""timestamp"":3603.600000023842},""timestamp"":3603.600000023842},{""type"":""chart_hover"",""data"":{""x"":945,""y"":391,""timestamp"":3611.7000000476837},""timestamp"":3611.7000000476837},{""type"":""chart_hover"",""data"":{""x"":944,""y"":399,""timestamp"":3620.300000011921},""timestamp"":3620.300000011921},{""type"":""chart_hover"",""data"":{""x"":942,""y"":406,""timestamp"":3628.400000035763},""timestamp"":3628.400000035763},{""type"":""chart_hover"",""data"":{""x"":939,""y"":414,""timestamp"":3636.800000011921},""timestamp"":3636.800000011921},{""type"":""chart_hover"",""data"":{""x"":937,""y"":421,""timestamp"":3645.100000023842},""timestamp"":3645.100000023842},{""type"":""chart_hover"",""data"":{""x"":935,""y"":427,""timestamp"":3653.5},""timestamp"":3653.5},{""type"":""chart_hover"",""data"":{""x"":933,""y"":431,""timestamp"":3662.100000023842},""timestamp"":3662.100000023842},{""type"":""chart_hover"",""data"":{""x"":933,""y"":435,""timestamp"":3669.900000035763},""timestamp"":3669.900000035763},{""type"":""chart_hover"",""data"":{""x"":932,""y"":437,""timestamp"":3678.400000035763},""timestamp"":3678.400000035763},{""type"":""chart_hover"",""data"":{""x"":932,""y"":438,""timestamp"":3686.7000000476837},""timestamp"":3686.7000000476837},{""type"":""chart_hover"",""data"":{""x"":932,""y"":440,""timestamp"":3695.100000023842},""timestamp"":3695.100000023842},{""type"":""chart_hover"",""data"":{""x"":933,""y"":441,""timestamp"":3704.100000023842},""timestamp"":3704.100000023842},{""type"":""chart_hover"",""data"":{""x"":931,""y"":439,""timestamp"":15412.200000047684},""timestamp"":15412.200000047684},{""type"":""chart_hover"",""data"":{""x"":919,""y"":429,""timestamp"":15420.300000011921},""timestamp"":15420.300000011921},{""type"":""chart_hover"",""data"":{""x"":903,""y"":408,""timestamp"":15428.5},""timestamp"":15428.5},{""type"":""chart_hover"",""data"":{""x"":890,""y"":395,""timestamp"":15437},""timestamp"":15437},{""type"":""chart_hover"",""data"":{""x"":881,""y"":386,""timestamp"":15445.200000047684},""timestamp"":15445.200000047684},{""type"":""chart_hover"",""data"":{""x"":869,""y"":378,""timestamp"":15453.5},""timestamp"":15453.5},{""type"":""chart_hover"",""data"":{""x"":859,""y"":372,""timestamp"":15461.700000047684},""timestamp"":15461.700000047684},{""type"":""chart_hover"",""data"":{""x"":854,""y"":370,""timestamp"":15470.200000047684},""timestamp"":15470.200000047684},{""type"":""chart_hover"",""data"":{""x"":840,""y"":366,""timestamp"":15478.400000035763},""timestamp"":15478.400000035763},{""type"":""chart_hover"",""data"":{""x"":833,""y"":366,""timestamp"":15486.900000035763},""timestamp"":15486.900000035763},{""type"":""chart_hover"",""data"":{""x"":830,""y"":367,""timestamp"":15495.100000023842},""timestamp"":15495.100000023842},{""type"":""chart_hover"",""data"":{""x"":826,""y"":370,""timestamp"":15503.600000023842},""timestamp"":15503.600000023842},{""type"":""chart_hover"",""data"":{""x"":822,""y"":375,""timestamp"":15511.800000011921},""timestamp"":15511.800000011921},{""type"":""chart_hover"",""data"":{""x"":819,""y"":381,""timestamp"":15520.100000023842},""timestamp"":15520.100000023842},{""type"":""chart_hover"",""data"":{""x"":815,""y"":390,""timestamp"":15528.400000035763},""timestamp"":15528.400000035763},{""type"":""chart_hover"",""data"":{""x"":812,""y"":399,""timestamp"":15536.900000035763},""timestamp"":15536.900000035763},{""type"":""chart_hover"",""data"":{""x"":808,""y"":409,""timestamp"":15545.100000023842},""timestamp"":15545.100000023842},{""type"":""chart_hover"",""data"":{""x"":804,""y"":422,""timestamp"":15553.5},""timestamp"":15553.5},{""type"":""chart_hover"",""data"":{""x"":798,""y"":436,""timestamp"":15561.800000011921},""timestamp"":15561.800000011921},{""type"":""chart_hover"",""data"":{""x"":791,""y"":451,""timestamp"":15570.200000047684},""timestamp"":15570.200000047684},{""type"":""chart_hover"",""data"":{""x"":783,""y"":472,""timestamp"":15578.600000023842},""timestamp"":15578.600000023842},{""type"":""chart_hover"",""data"":{""x"":770,""y"":496,""timestamp"":15587},""timestamp"":15587},{""type"":""chart_hover"",""data"":{""x"":762,""y"":523,""timestamp"":15595},""timestamp"":15595},{""type"":""chart_hover"",""data"":{""x"":760,""y"":537,""timestamp"":15604.5},""timestamp"":15604.5},{""type"":""chart_hover"",""data"":{""x"":757,""y"":598,""timestamp"":15611.800000011921},""timestamp"":15611.800000011921},{""type"":""chart_leave"",""data"":{""timestamp"":15620.200000047684},""timestamp"":15620.200000047684},{""type"":""chart_enter"",""data"":{""timestamp"":63071.10000002384},""timestamp"":63071.10000002384},{""type"":""chart_hover"",""data"":{""x"":692,""y"":596,""timestamp"":63071.10000002384},""timestamp"":63071.10000002384},{""type"":""chart_hover"",""data"":{""x"":689,""y"":589,""timestamp"":63078.80000001192},""timestamp"":63078.80000001192},{""type"":""chart_hover"",""data"":{""x"":686,""y"":581,""timestamp"":63086.90000003576},""timestamp"":63086.90000003576},{""type"":""chart_hover"",""data"":{""x"":682,""y"":572,""timestamp"":63095},""timestamp"":63095},{""type"":""chart_hover"",""data"":{""x"":679,""y"":567,""timestamp"":63103.60000002384},""timestamp"":63103.60000002384},{""type"":""chart_hover"",""data"":{""x"":675,""y"":558,""timestamp"":63112.200000047684},""timestamp"":63112.200000047684},{""type"":""chart_hover"",""data"":{""x"":668,""y"":546,""timestamp"":63120.30000001192},""timestamp"":63120.30000001192},{""type"":""chart_hover"",""data"":{""x"":666,""y"":543,""timestamp"":63128.700000047684},""timestamp"":63128.700000047684},{""type"":""chart_hover"",""data"":{""x"":655,""y"":527,""timestamp"":63145.40000003576},""timestamp"":63145.40000003576},{""type"":""chart_hover"",""data"":{""x"":649,""y"":521,""timestamp"":63153.700000047684},""timestamp"":63153.700000047684},{""type"":""chart_hover"",""data"":{""x"":640,""y"":511,""timestamp"":63161.90000003576},""timestamp"":63161.90000003576},{""type"":""chart_hover"",""data"":{""x"":632,""y"":506,""timestamp"":63170.10000002384},""timestamp"":63170.10000002384},{""type"":""chart_hover"",""data"":{""x"":624,""y"":500,""timestamp"":63178.700000047684},""timestamp"":63178.700000047684},{""type"":""chart_hover"",""data"":{""x"":616,""y"":497,""timestamp"":63186.90000003576},""timestamp"":63186.90000003576},{""type"":""chart_hover"",""data"":{""x"":605,""y"":494,""timestamp"":63195.200000047684},""timestamp"":63195.200000047684},{""type"":""chart_hover"",""data"":{""x"":595,""y"":493,""timestamp"":63203.60000002384},""timestamp"":63203.60000002384},{""type"":""chart_leave"",""data"":{""timestamp"":63211.30000001192},""timestamp"":63211.30000001192},{""type"":""chart_enter"",""data"":{""timestamp"":63788.40000003576},""timestamp"":63788.40000003576},{""type"":""chart_hover"",""data"":{""x"":596,""y"":598,""timestamp"":63788.40000003576},""timestamp"":63788.40000003576},{""type"":""chart_hover"",""data"":{""x"":597,""y"":598,""timestamp"":63795.5},""timestamp"":63795.5},{""type"":""chart_hover"",""data"":{""x"":597,""y"":597,""timestamp"":63803.90000003576},""timestamp"":63803.90000003576},{""type"":""chart_hover"",""data"":{""x"":599,""y"":594,""timestamp"":63811.90000003576},""timestamp"":63811.90000003576},{""type"":""chart_hover"",""data"":{""x"":600,""y"":592,""timestamp"":63820.10000002384},""timestamp"":63820.10000002384},{""type"":""chart_hover"",""data"":{""x"":602,""y"":590,""timestamp"":63828.700000047684},""timestamp"":63828.700000047684},{""type"":""chart_hover"",""data"":{""x"":603,""y"":588,""timestamp"":63845.30000001192},""timestamp"":63845.30000001192},{""type"":""chart_hover"",""data"":{""x"":603,""y"":587,""timestamp"":63852.700000047684},""timestamp"":63852.700000047684},{""type"":""chart_hover"",""data"":{""x"":604,""y"":587,""timestamp"":63870.40000003576},""timestamp"":63870.40000003576},{""type"":""chart_hover"",""data"":{""x"":606,""y"":587,""timestamp"":63978.60000002384},""timestamp"":63978.700000047684},{""type"":""chart_hover"",""data"":{""x"":607,""y"":586,""timestamp"":63986.90000003576},""timestamp"":63986.90000003576},{""type"":""chart_hover"",""data"":{""x"":608,""y"":586,""timestamp"":63995.30000001192},""timestamp"":63995.30000001192},{""type"":""chart_hover"",""data"":{""x"":609,""y"":586,""timestamp"":64003.700000047684},""timestamp"":64003.700000047684},{""type"":""chart_hover"",""data"":{""x"":610,""y"":586,""timestamp"":64012.10000002384},""timestamp"":64012.10000002384},{""type"":""chart_hover"",""data"":{""x"":611,""y"":585,""timestamp"":64020.30000001192},""timestamp"":64020.30000001192},{""type"":""chart_hover"",""data"":{""x"":613,""y"":585,""timestamp"":64028.200000047684},""timestamp"":64028.200000047684},{""type"":""chart_hover"",""data"":{""x"":615,""y"":584,""timestamp"":64036.90000003576},""timestamp"":64036.90000003576},{""type"":""chart_hover"",""data"":{""x"":616,""y"":584,""timestamp"":64045},""timestamp"":64045},{""type"":""chart_hover"",""data"":{""x"":617,""y"":584,""timestamp"":64053.60000002384},""timestamp"":64053.60000002384},{""type"":""chart_hover"",""data"":{""x"":618,""y"":584,""timestamp"":64061.90000003576},""timestamp"":64061.90000003576},{""type"":""chart_hover"",""data"":{""x"":618,""y"":583,""timestamp"":64095.200000047684},""timestamp"":64095.200000047684},{""type"":""chart_hover"",""data"":{""x"":619,""y"":583,""timestamp"":64156.10000002384},""timestamp"":64156.10000002384},{""type"":""chart_hover"",""data"":{""x"":620,""y"":583,""timestamp"":64167.10000002384},""timestamp"":64167.10000002384},{""type"":""chart_hover"",""data"":{""x"":621,""y"":583,""timestamp"":64205.90000003576},""timestamp"":64205.90000003576},{""type"":""chart_hover"",""data"":{""x"":621,""y"":582,""timestamp"":65402.60000002384},""timestamp"":65402.60000002384},{""type"":""chart_hover"",""data"":{""x"":623,""y"":578,""timestamp"":65411.30000001192},""timestamp"":65411.30000001192},{""type"":""chart_hover"",""data"":{""x"":626,""y"":576,""timestamp"":65420.5},""timestamp"":65420.5},{""type"":""chart_hover"",""data"":{""x"":629,""y"":573,""timestamp"":65428.90000003576},""timestamp"":65428.90000003576},{""type"":""chart_hover"",""data"":{""x"":632,""y"":569,""timestamp"":65437},""timestamp"":65437},{""type"":""chart_hover"",""data"":{""x"":635,""y"":565,""timestamp"":65445.200000047684},""timestamp"":65445.200000047684},{""type"":""chart_hover"",""data"":{""x"":638,""y"":561,""timestamp"":65453.60000002384},""timestamp"":65453.60000002384},{""type"":""chart_hover"",""data"":{""x"":642,""y"":557,""timestamp"":65462.200000047684},""timestamp"":65462.200000047684},{""type"":""chart_hover"",""data"":{""x"":644,""y"":554,""timestamp"":65470.30000001192},""timestamp"":65470.30000001192},{""type"":""chart_hover"",""data"":{""x"":648,""y"":549,""timestamp"":65479},""timestamp"":65479},{""type"":""chart_hover"",""data"":{""x"":649,""y"":547,""timestamp"":65486.40000003576},""timestamp"":65486.40000003576},{""type"":""chart_hover"",""data"":{""x"":651,""y"":538,""timestamp"":65495.40000003576},""timestamp"":65495.40000003576},{""type"":""chart_hover"",""data"":{""x"":653,""y"":530,""timestamp"":65504.30000001192},""timestamp"":65504.30000001192},{""type"":""chart_hover"",""data"":{""x"":654,""y"":521,""timestamp"":65512.10000002384},""timestamp"":65512.10000002384},{""type"":""chart_hover"",""data"":{""x"":655,""y"":510,""timestamp"":65520.40000003576},""timestamp"":65520.40000003576},{""type"":""chart_hover"",""data"":{""x"":655,""y"":499,""timestamp"":65528.80000001192},""timestamp"":65528.80000001192},{""type"":""chart_hover"",""data"":{""x"":655,""y"":486,""timestamp"":65537},""timestamp"":65537},{""type"":""chart_hover"",""data"":{""x"":653,""y"":472,""timestamp"":65545.40000003576},""timestamp"":65545.40000003576},{""type"":""chart_hover"",""data"":{""x"":651,""y"":457,""timestamp"":65553.60000002384},""timestamp"":65553.60000002384},{""type"":""chart_hover"",""data"":{""x"":649,""y"":444,""timestamp"":65562.10000002384},""timestamp"":65562.10000002384},{""type"":""chart_hover"",""data"":{""x"":645,""y"":429,""timestamp"":65570.30000001192},""timestamp"":65570.30000001192},{""type"":""chart_hover"",""data"":{""x"":640,""y"":412,""timestamp"":65578.60000002384},""timestamp"":65578.60000002384},{""type"":""chart_hover"",""data"":{""x"":634,""y"":397,""timestamp"":65587},""timestamp"":65587},{""type"":""chart_hover"",""data"":{""x"":628,""y"":382,""timestamp"":65595.40000003576},""timestamp"":65595.40000003576},{""type"":""chart_hover"",""data"":{""x"":621,""y"":367,""timestamp"":65603.70000004768},""timestamp"":65603.70000004768},{""type"":""chart_hover"",""data"":{""x"":612,""y"":350,""timestamp"":65612.10000002384},""timestamp"":65612.10000002384},{""type"":""chart_hover"",""data"":{""x"":602,""y"":334,""timestamp"":65620.30000001192},""timestamp"":65620.30000001192},{""type"":""chart_hover"",""data"":{""x"":591,""y"":321,""timestamp"":65628.70000004768},""timestamp"":65628.70000004768},{""type"":""chart_leave"",""data"":{""timestamp"":65637},""timestamp"":65637},{""type"":""chart_enter"",""data"":{""timestamp"":68437.10000002384},""timestamp"":68437.10000002384},{""type"":""chart_hover"",""data"":{""x"":607,""y"":424,""timestamp"":68437.10000002384},""timestamp"":68437.10000002384},{""type"":""chart_hover"",""data"":{""x"":636,""y"":434,""timestamp"":68445.5},""timestamp"":68445.5},{""type"":""chart_hover"",""data"":{""x"":663,""y"":445,""timestamp"":68453.80000001192},""timestamp"":68453.80000001192},{""type"":""chart_hover"",""data"":{""x"":690,""y"":457,""timestamp"":68462.90000003576},""timestamp"":68462.90000003576},{""type"":""chart_hover"",""data"":{""x"":701,""y"":462,""timestamp"":68470.60000002384},""timestamp"":68470.70000004768},{""type"":""chart_hover"",""data"":{""x"":736,""y"":479,""timestamp"":68478.70000004768},""timestamp"":68478.70000004768},{""type"":""chart_hover"",""data"":{""x"":748,""y"":486,""timestamp"":68487.30000001192},""timestamp"":68487.30000001192},{""type"":""chart_hover"",""data"":{""x"":777,""y"":503,""timestamp"":68495.40000003576},""timestamp"":68495.40000003576},{""type"":""chart_hover"",""data"":{""x"":797,""y"":515,""timestamp"":68503.70000004768},""timestamp"":68503.70000004768},{""type"":""chart_hover"",""data"":{""x"":816,""y"":529,""timestamp"":68512.20000004768},""timestamp"":68512.20000004768},{""type"":""chart_hover"",""data"":{""x"":824,""y"":535,""timestamp"":68520.40000003576},""timestamp"":68520.40000003576},{""type"":""chart_hover"",""data"":{""x"":844,""y"":551,""timestamp"":68528.70000004768},""timestamp"":68528.70000004768},{""type"":""chart_hover"",""data"":{""x"":855,""y"":562,""timestamp"":68536.90000003576},""timestamp"":68536.90000003576},{""type"":""chart_hover"",""data"":{""x"":867,""y"":572,""timestamp"":68545.40000003576},""timestamp"":68545.40000003576},{""type"":""chart_hover"",""data"":{""x"":874,""y"":581,""timestamp"":68553.70000004768},""timestamp"":68553.80000001192},{""type"":""chart_hover"",""data"":{""x"":880,""y"":588,""timestamp"":68562.10000002384},""timestamp"":68562.10000002384},{""type"":""chart_hover"",""data"":{""x"":883,""y"":593,""timestamp"":68570},""timestamp"":68570},{""type"":""chart_hover"",""data"":{""x"":885,""y"":598,""timestamp"":68578.60000002384},""timestamp"":68578.70000004768},{""type"":""chart_leave"",""data"":{""timestamp"":68587.20000004768},""timestamp"":68587.20000004768},{""type"":""chart_enter"",""data"":{""timestamp"":68662},""timestamp"":68662},{""type"":""chart_hover"",""data"":{""x"":880,""y"":598,""timestamp"":68662},""timestamp"":68662},{""type"":""chart_hover"",""data"":{""x"":878,""y"":597,""timestamp"":68670.30000001192},""timestamp"":68670.30000001192},{""type"":""chart_hover"",""data"":{""x"":875,""y"":595,""timestamp"":68678.60000002384},""timestamp"":68678.60000002384},{""type"":""chart_hover"",""data"":{""x"":872,""y"":594,""timestamp"":68687},""timestamp"":68687},{""type"":""chart_hover"",""data"":{""x"":869,""y"":593,""timestamp"":68695.30000001192},""timestamp"":68695.30000001192},{""type"":""chart_hover"",""data"":{""x"":866,""y"":592,""timestamp"":68703.70000004768},""timestamp"":68703.70000004768},{""type"":""chart_hover"",""data"":{""x"":864,""y"":591,""timestamp"":68711.90000003576},""timestamp"":68711.90000003576},{""type"":""chart_hover"",""data"":{""x"":861,""y"":591,""timestamp"":68720.30000001192},""timestamp"":68720.40000003576},{""type"":""chart_hover"",""data"":{""x"":861,""y"":591,""timestamp"":68728.60000002384},""timestamp"":68728.60000002384},{""type"":""chart_hover"",""data"":{""x"":860,""y"":591,""timestamp"":68737},""timestamp"":68737},{""type"":""chart_hover"",""data"":{""x"":860,""y"":590,""timestamp"":68803.60000002384},""timestamp"":68803.60000002384},{""type"":""chart_hover"",""data"":{""x"":859,""y"":590,""timestamp"":68828.60000002384},""timestamp"":68828.60000002384},{""type"":""chart_hover"",""data"":{""x"":858,""y"":589,""timestamp"":68836.90000003576},""timestamp"":68836.90000003576},{""type"":""chart_hover"",""data"":{""x"":858,""y"":588,""timestamp"":68845.30000001192},""timestamp"":68845.30000001192},{""type"":""chart_hover"",""data"":{""x"":857,""y"":588,""timestamp"":68853.60000002384},""timestamp"":68853.60000002384},{""type"":""chart_hover"",""data"":{""x"":857,""y"":587,""timestamp"":69175.90000003576},""timestamp"":69175.90000003576},{""type"":""chart_hover"",""data"":{""x"":856,""y"":584,""timestamp"":69187.10000002384},""timestamp"":69187.10000002384},{""type"":""chart_hover"",""data"":{""x"":855,""y"":584,""timestamp"":69196.5},""timestamp"":69196.5},{""type"":""chart_hover"",""data"":{""x"":854,""y"":583,""timestamp"":69203.60000002384},""timestamp"":69203.60000002384},{""type"":""chart_hover"",""data"":{""x"":854,""y"":581,""timestamp"":69212},""timestamp"":69212},{""type"":""chart_hover"",""data"":{""x"":854,""y"":578,""timestamp"":69220.40000003576},""timestamp"":69220.40000003576},{""type"":""chart_hover"",""data"":{""x"":853,""y"":577,""timestamp"":69228.70000004768},""timestamp"":69228.70000004768},{""type"":""chart_hover"",""data"":{""x"":853,""y"":575,""timestamp"":69236.90000003576},""timestamp"":69236.90000003576},{""type"":""chart_hover"",""data"":{""x"":852,""y"":572,""timestamp"":69245.30000001192},""timestamp"":69245.30000001192},{""type"":""chart_hover"",""data"":{""x"":851,""y"":570,""timestamp"":69253.60000002384},""timestamp"":69253.60000002384},{""type"":""chart_hover"",""data"":{""x"":850,""y"":568,""timestamp"":69262.90000003576},""timestamp"":69262.90000003576},{""type"":""chart_hover"",""data"":{""x"":850,""y"":566,""timestamp"":69270.40000003576},""timestamp"":69270.40000003576},{""type"":""chart_hover"",""data"":{""x"":849,""y"":563,""timestamp"":69278.60000002384},""timestamp"":69278.60000002384},{""type"":""chart_hover"",""data"":{""x"":848,""y"":561,""timestamp"":69287},""timestamp"":69287},{""type"":""chart_hover"",""data"":{""x"":848,""y"":560,""timestamp"":69295.30000001192},""timestamp"":69295.30000001192},{""type"":""chart_hover"",""data"":{""x"":847,""y"":558,""timestamp"":69303.60000002384},""timestamp"":69303.60000002384},{""type"":""chart_hover"",""data"":{""x"":847,""y"":557,""timestamp"":69317.5},""timestamp"":69317.5},{""type"":""chart_hover"",""data"":{""x"":847,""y"":558,""timestamp"":69421.20000004768},""timestamp"":69421.20000004768},{""type"":""chart_hover"",""data"":{""x"":847,""y"":559,""timestamp"":69432.40000003576},""timestamp"":69432.40000003576},{""type"":""chart_hover"",""data"":{""x"":848,""y"":559,""timestamp"":69438},""timestamp"":69438.10000002384},{""type"":""chart_hover"",""data"":{""x"":848,""y"":560,""timestamp"":69445.40000003576},""timestamp"":69445.40000003576},{""type"":""chart_hover"",""data"":{""x"":849,""y"":561,""timestamp"":69470.30000001192},""timestamp"":69470.30000001192},{""type"":""chart_hover"",""data"":{""x"":849,""y"":562,""timestamp"":69486.40000003576},""timestamp"":69486.5},{""type"":""chart_hover"",""data"":{""x"":849,""y"":563,""timestamp"":73253.5},""timestamp"":73253.5},{""type"":""chart_hover"",""data"":{""x"":849,""y"":564,""timestamp"":73262.20000004768},""timestamp"":73262.20000004768},{""type"":""chart_hover"",""data"":{""x"":850,""y"":566,""timestamp"":73270.70000004768},""timestamp"":73270.70000004768},{""type"":""chart_hover"",""data"":{""x"":851,""y"":567,""timestamp"":73278.80000001192},""timestamp"":73278.80000001192},{""type"":""chart_hover"",""data"":{""x"":851,""y"":570,""timestamp"":73287.10000002384},""timestamp"":73287.10000002384},{""type"":""chart_hover"",""data"":{""x"":852,""y"":571,""timestamp"":73295.30000001192},""timestamp"":73295.30000001192},{""type"":""chart_hover"",""data"":{""x"":853,""y"":575,""timestamp"":73303.60000002384},""timestamp"":73303.60000002384},{""type"":""chart_hover"",""data"":{""x"":854,""y"":577,""timestamp"":73312},""timestamp"":73312},{""type"":""chart_hover"",""data"":{""x"":855,""y"":581,""timestamp"":73320.30000001192},""timestamp"":73320.30000001192},{""type"":""chart_hover"",""data"":{""x"":858,""y"":584,""timestamp"":73328.70000004768},""timestamp"":73328.70000004768},{""type"":""chart_hover"",""data"":{""x"":860,""y"":587,""timestamp"":73337},""timestamp"":73337},{""type"":""chart_hover"",""data"":{""x"":862,""y"":591,""timestamp"":73346.30000001192},""timestamp"":73346.30000001192},{""type"":""chart_hover"",""data"":{""x"":865,""y"":594,""timestamp"":73353.80000001192},""timestamp"":73353.80000001192},{""type"":""chart_hover"",""data"":{""x"":868,""y"":598,""timestamp"":73362},""timestamp"":73362},{""type"":""chart_leave"",""data"":{""timestamp"":73370.40000003576},""timestamp"":73370.40000003576},{""type"":""chart_enter"",""data"":{""timestamp"":74453.60000002384},""timestamp"":74453.60000002384},{""type"":""chart_hover"",""data"":{""x"":862,""y"":598,""timestamp"":74453.60000002384},""timestamp"":74453.60000002384},{""type"":""chart_hover"",""data"":{""x"":861,""y"":597,""timestamp"":74462},""timestamp"":74462},{""type"":""chart_hover"",""data"":{""x"":859,""y"":595,""timestamp"":74478.60000002384},""timestamp"":74478.60000002384},{""type"":""chart_hover"",""data"":{""x"":858,""y"":594,""timestamp"":74486.30000001192},""timestamp"":74486.40000003576},{""type"":""chart_hover"",""data"":{""x"":857,""y"":593,""timestamp"":74495.30000001192},""timestamp"":74495.30000001192},{""type"":""chart_hover"",""data"":{""x"":857,""y"":592,""timestamp"":74503},""timestamp"":74503},{""type"":""chart_hover"",""data"":{""x"":856,""y"":592,""timestamp"":74511.70000004768},""timestamp"":74511.70000004768},{""type"":""chart_hover"",""data"":{""x"":856,""y"":591,""timestamp"":74520.60000002384},""timestamp"":74520.60000002384},{""type"":""chart_hover"",""data"":{""x"":855,""y"":591,""timestamp"":74537},""timestamp"":74537},{""type"":""chart_hover"",""data"":{""x"":855,""y"":591,""timestamp"":74545.30000001192},""timestamp"":74545.30000001192},{""type"":""chart_hover"",""data"":{""x"":854,""y"":591,""timestamp"":74595.40000003576},""timestamp"":74595.40000003576},{""type"":""chart_hover"",""data"":{""x"":854,""y"":590,""timestamp"":74603.60000002384},""timestamp"":74603.60000002384},{""type"":""chart_hover"",""data"":{""x"":854,""y"":591,""timestamp"":81224},""timestamp"":81224},{""type"":""chart_hover"",""data"":{""x"":853,""y"":594,""timestamp"":81237.20000004768},""timestamp"":81237.20000004768},{""type"":""chart_leave"",""data"":{""timestamp"":81245.5},""timestamp"":81245.5},{""type"":""chart_enter"",""data"":{""timestamp"":119978.90000003576},""timestamp"":119979},{""type"":""chart_hover"",""data"":{""x"":847,""y"":544,""timestamp"":119979},""timestamp"":119979},{""type"":""chart_hover"",""data"":{""x"":845,""y"":502,""timestamp"":119987.40000003576},""timestamp"":119987.40000003576},{""type"":""chart_hover"",""data"":{""x"":845,""y"":487,""timestamp"":119995.70000004768},""timestamp"":119995.70000004768},{""type"":""chart_hover"",""data"":{""x"":856,""y"":469,""timestamp"":120006.90000003576},""timestamp"":120006.90000003576},{""type"":""chart_hover"",""data"":{""x"":860,""y"":467,""timestamp"":120012.40000003576},""timestamp"":120012.40000003576},{""type"":""chart_hover"",""data"":{""x"":863,""y"":466,""timestamp"":120020.10000002384},""timestamp"":120020.10000002384},{""type"":""chart_hover"",""data"":{""x"":910,""y"":510,""timestamp"":120045.60000002384},""timestamp"":120045.60000002384},{""type"":""chart_hover"",""data"":{""x"":928,""y"":563,""timestamp"":120053.70000004768},""timestamp"":120053.70000004768},{""type"":""chart_leave"",""data"":{""timestamp"":120062.30000001192},""timestamp"":120062.30000001192},{""type"":""chart_enter"",""data"":{""timestamp"":137529},""timestamp"":137529},{""type"":""chart_hover"",""data"":{""x"":965,""y"":465,""timestamp"":137529},""timestamp"":137529},{""type"":""chart_hover"",""data"":{""x"":964,""y"":465,""timestamp"":137531.80000001192},""timestamp"":137531.80000001192},{""type"":""chart_hover"",""data"":{""x"":963,""y"":465,""timestamp"":137540},""timestamp"":137540},{""type"":""chart_hover"",""data"":{""x"":962,""y"":464,""timestamp"":137556.70000004768},""timestamp"":137556.70000004768},{""type"":""chart_hover"",""data"":{""x"":961,""y"":464,""timestamp"":137565.40000003576},""timestamp"":137565.40000003576},{""type"":""chart_hover"",""data"":{""x"":960,""y"":463,""timestamp"":137573.60000002384},""timestamp"":137573.70000004768},{""type"":""chart_hover"",""data"":{""x"":959,""y"":462,""timestamp"":137581.70000004768},""timestamp"":137581.70000004768},{""type"":""chart_hover"",""data"":{""x"":958,""y"":462,""timestamp"":137590},""timestamp"":137590.10000002384},{""type"":""chart_hover"",""data"":{""x"":957,""y"":462,""timestamp"":137598.70000004768},""timestamp"":137598.70000004768},{""type"":""chart_hover"",""data"":{""x"":955,""y"":461,""timestamp"":137606.80000001192},""timestamp"":137606.80000001192},{""type"":""chart_hover"",""data"":{""x"":953,""y"":460,""timestamp"":137615},""timestamp"":137615},{""type"":""chart_hover"",""data"":{""x"":952,""y"":460,""timestamp"":137623.30000001192},""timestamp"":137623.30000001192},{""type"":""chart_hover"",""data"":{""x"":951,""y"":460,""timestamp"":137632},""timestamp"":137632},{""type"":""chart_hover"",""data"":{""x"":948,""y"":459,""timestamp"":137640.30000001192},""timestamp"":137640.30000001192},{""type"":""chart_hover"",""data"":{""x"":945,""y"":459,""timestamp"":137648.40000003576},""timestamp"":137648.40000003576},{""type"":""chart_hover"",""data"":{""x"":942,""y"":459,""timestamp"":137656.80000001192},""timestamp"":137656.80000001192},{""type"":""chart_hover"",""data"":{""x"":936,""y"":459,""timestamp"":137665.30000001192},""timestamp"":137665.30000001192},{""type"":""chart_hover"",""data"":{""x"":931,""y"":459,""timestamp"":137673.5},""timestamp"":137673.5},{""type"":""chart_hover"",""data"":{""x"":921,""y"":459,""timestamp"":137682},""timestamp"":137682},{""type"":""chart_hover"",""data"":{""x"":910,""y"":459,""timestamp"":137690},""timestamp"":137690.10000002384},{""type"":""chart_hover"",""data"":{""x"":897,""y"":459,""timestamp"":137698.70000004768},""timestamp"":137698.70000004768},{""type"":""chart_hover"",""data"":{""x"":885,""y"":459,""timestamp"":137706.30000001192},""timestamp"":137706.30000001192},{""type"":""chart_hover"",""data"":{""x"":870,""y"":458,""timestamp"":137714.20000004768},""timestamp"":137714.20000004768},{""type"":""chart_hover"",""data"":{""x"":851,""y"":458,""timestamp"":137723.90000003576},""timestamp"":137723.90000003576},{""type"":""chart_hover"",""data"":{""x"":833,""y"":457,""timestamp"":137731.60000002384},""timestamp"":137731.60000002384},{""type"":""chart_hover"",""data"":{""x"":812,""y"":456,""timestamp"":137740},""timestamp"":137740.10000002384},{""type"":""chart_hover"",""data"":{""x"":790,""y"":454,""timestamp"":137748.5},""timestamp"":137748.5},{""type"":""chart_hover"",""data"":{""x"":772,""y"":452,""timestamp"":137756.20000004768},""timestamp"":137756.20000004768},{""type"":""chart_hover"",""data"":{""x"":751,""y"":451,""timestamp"":137765.40000003576},""timestamp"":137765.40000003576},{""type"":""chart_hover"",""data"":{""x"":741,""y"":450,""timestamp"":137771.70000004768},""timestamp"":137771.70000004768},{""type"":""chart_hover"",""data"":{""x"":730,""y"":449,""timestamp"":137778.90000003576},""timestamp"":137778.90000003576},{""type"":""chart_hover"",""data"":{""x"":723,""y"":448,""timestamp"":137787.20000004768},""timestamp"":137787.20000004768},{""type"":""chart_hover"",""data"":{""x"":721,""y"":447,""timestamp"":137795.70000004768},""timestamp"":137795.70000004768},{""type"":""chart_hover"",""data"":{""x"":723,""y"":447,""timestamp"":137820.40000003576},""timestamp"":137820.40000003576},{""type"":""chart_hover"",""data"":{""x"":727,""y"":446,""timestamp"":137828.90000003576},""timestamp"":137828.90000003576},{""type"":""chart_hover"",""data"":{""x"":733,""y"":446,""timestamp"":137837.30000001192},""timestamp"":137837.30000001192},{""type"":""chart_hover"",""data"":{""x"":738,""y"":446,""timestamp"":137845.60000002384},""timestamp"":137845.60000002384},{""type"":""chart_hover"",""data"":{""x"":743,""y"":446,""timestamp"":137853.90000003576},""timestamp"":137853.90000003576},{""type"":""chart_hover"",""data"":{""x"":746,""y"":446,""timestamp"":137862.20000004768},""timestamp"":137862.20000004768},{""type"":""chart_hover"",""data"":{""x"":748,""y"":447,""timestamp"":137870.60000002384},""timestamp"":137870.60000002384},{""type"":""chart_hover"",""data"":{""x"":749,""y"":449,""timestamp"":137878.90000003576},""timestamp"":137878.90000003576},{""type"":""chart_hover"",""data"":{""x"":749,""y"":451,""timestamp"":137887.20000004768},""timestamp"":137887.20000004768},{""type"":""chart_hover"",""data"":{""x"":749,""y"":455,""timestamp"":137895.5},""timestamp"":137895.5},{""type"":""chart_hover"",""data"":{""x"":747,""y"":459,""timestamp"":137903.90000003576},""timestamp"":137903.90000003576},{""type"":""chart_hover"",""data"":{""x"":746,""y"":462,""timestamp"":137912.30000001192},""timestamp"":137912.30000001192},{""type"":""chart_hover"",""data"":{""x"":745,""y"":463,""timestamp"":137923.30000001192},""timestamp"":137923.30000001192},{""type"":""chart_hover"",""data"":{""x"":744,""y"":467,""timestamp"":137931.80000001192},""timestamp"":137931.80000001192},{""type"":""chart_hover"",""data"":{""x"":743,""y"":469,""timestamp"":137948.70000004768},""timestamp"":137948.70000004768},{""type"":""chart_hover"",""data"":{""x"":743,""y"":470,""timestamp"":137953.90000003576},""timestamp"":137953.90000003576},{""type"":""chart_hover"",""data"":{""x"":743,""y"":471,""timestamp"":137965.40000003576},""timestamp"":137965.40000003576},{""type"":""chart_hover"",""data"":{""x"":742,""y"":472,""timestamp"":137973.70000004768},""timestamp"":137973.70000004768},{""type"":""chart_hover"",""data"":{""x"":742,""y"":472,""timestamp"":137990},""timestamp"":137990},{""type"":""chart_leave"",""data"":{""timestamp"":137997.90000003576},""timestamp"":137997.90000003576},{""type"":""chart_enter"",""data"":{""timestamp"":215096.10000002384},""timestamp"":215096.10000002384},{""type"":""chart_hover"",""data"":{""x"":1029,""y"":597,""timestamp"":215096.10000002384},""timestamp"":215096.10000002384},{""type"":""chart_hover"",""data"":{""x"":1029,""y"":597,""timestamp"":215097.80000001192},""timestamp"":215097.80000001192},{""type"":""chart_hover"",""data"":{""x"":1028,""y"":594,""timestamp"":215107.40000003576},""timestamp"":215107.40000003576},{""type"":""chart_hover"",""data"":{""x"":1026,""y"":591,""timestamp"":215115.5},""timestamp"":215115.5},{""type"":""chart_hover"",""data"":{""x"":1025,""y"":587,""timestamp"":215123.90000003576},""timestamp"":215123.90000003576},{""type"":""chart_hover"",""data"":{""x"":1023,""y"":583,""timestamp"":215132.30000001192},""timestamp"":215132.30000001192},{""type"":""chart_hover"",""data"":{""x"":1022,""y"":577,""timestamp"":215140.60000002384},""timestamp"":215140.60000002384},{""type"":""chart_hover"",""data"":{""x"":1021,""y"":571,""timestamp"":215149},""timestamp"":215149},{""type"":""chart_hover"",""data"":{""x"":1019,""y"":563,""timestamp"":215157.30000001192},""timestamp"":215157.30000001192},{""type"":""chart_hover"",""data"":{""x"":1017,""y"":554,""timestamp"":215165.40000003576},""timestamp"":215165.40000003576},{""type"":""chart_hover"",""data"":{""x"":1015,""y"":544,""timestamp"":215173.60000002384},""timestamp"":215173.60000002384},{""type"":""chart_hover"",""data"":{""x"":1014,""y"":534,""timestamp"":215182.30000001192},""timestamp"":215182.30000001192},{""type"":""chart_hover"",""data"":{""x"":1011,""y"":521,""timestamp"":215190.70000004768},""timestamp"":215190.70000004768},{""type"":""chart_hover"",""data"":{""x"":1008,""y"":509,""timestamp"":215199},""timestamp"":215199},{""type"":""chart_hover"",""data"":{""x"":1004,""y"":495,""timestamp"":215207.20000004768},""timestamp"":215207.20000004768},{""type"":""chart_hover"",""data"":{""x"":1001,""y"":481,""timestamp"":215215.70000004768},""timestamp"":215215.70000004768},{""type"":""chart_hover"",""data"":{""x"":996,""y"":465,""timestamp"":215224},""timestamp"":215224},{""type"":""chart_hover"",""data"":{""x"":991,""y"":451,""timestamp"":215232.30000001192},""timestamp"":215232.30000001192},{""type"":""chart_hover"",""data"":{""x"":984,""y"":434,""timestamp"":215240.70000004768},""timestamp"":215240.70000004768},{""type"":""chart_hover"",""data"":{""x"":978,""y"":417,""timestamp"":215249},""timestamp"":215249},{""type"":""chart_hover"",""data"":{""x"":970,""y"":401,""timestamp"":215257.10000002384},""timestamp"":215257.10000002384},{""type"":""chart_hover"",""data"":{""x"":962,""y"":385,""timestamp"":215265.60000002384},""timestamp"":215265.60000002384},{""type"":""chart_hover"",""data"":{""x"":952,""y"":368,""timestamp"":215273.90000003576},""timestamp"":215273.90000003576},{""type"":""chart_hover"",""data"":{""x"":943,""y"":353,""timestamp"":215282.30000001192},""timestamp"":215282.30000001192},{""type"":""chart_hover"",""data"":{""x"":933,""y"":340,""timestamp"":215290.30000001192},""timestamp"":215290.30000001192},{""type"":""chart_hover"",""data"":{""x"":926,""y"":332,""timestamp"":215295.90000003576},""timestamp"":215295.90000003576},{""type"":""chart_hover"",""data"":{""x"":917,""y"":319,""timestamp"":215304.5},""timestamp"":215304.5},{""type"":""chart_hover"",""data"":{""x"":906,""y"":308,""timestamp"":215312.60000002384},""timestamp"":215312.60000002384},{""type"":""chart_hover"",""data"":{""x"":897,""y"":299,""timestamp"":215320.90000003576},""timestamp"":215320.90000003576},{""type"":""chart_hover"",""data"":{""x"":889,""y"":292,""timestamp"":215329.30000001192},""timestamp"":215329.30000001192},{""type"":""chart_hover"",""data"":{""x"":881,""y"":286,""timestamp"":215337.5},""timestamp"":215337.5},{""type"":""chart_hover"",""data"":{""x"":875,""y"":283,""timestamp"":215346},""timestamp"":215346},{""type"":""chart_hover"",""data"":{""x"":868,""y"":282,""timestamp"":215354.20000004768},""timestamp"":215354.20000004768},{""type"":""chart_hover"",""data"":{""x"":863,""y"":282,""timestamp"":215362.5},""timestamp"":215362.5},{""type"":""chart_hover"",""data"":{""x"":856,""y"":283,""timestamp"":215371},""timestamp"":215371.10000002384},{""type"":""chart_hover"",""data"":{""x"":847,""y"":289,""timestamp"":215379.30000001192},""timestamp"":215379.30000001192},{""type"":""chart_hover"",""data"":{""x"":836,""y"":295,""timestamp"":215387.60000002384},""timestamp"":215387.60000002384},{""type"":""chart_hover"",""data"":{""x"":825,""y"":304,""timestamp"":215396},""timestamp"":215396},{""type"":""chart_hover"",""data"":{""x"":810,""y"":315,""timestamp"":215404.30000001192},""timestamp"":215404.30000001192},{""type"":""chart_hover"",""data"":{""x"":804,""y"":320,""timestamp"":215412.60000002384},""timestamp"":215412.60000002384},{""type"":""chart_hover"",""data"":{""x"":803,""y"":319,""timestamp"":215759.70000004768},""timestamp"":215759.70000004768},{""type"":""chart_hover"",""data"":{""x"":801,""y"":317,""timestamp"":215771.20000004768},""timestamp"":215771.20000004768},{""type"":""chart_hover"",""data"":{""x"":801,""y"":315,""timestamp"":215779.30000001192},""timestamp"":215779.30000001192},{""type"":""chart_hover"",""data"":{""x"":800,""y"":312,""timestamp"":215788.10000002384},""timestamp"":215788.10000002384},{""type"":""chart_hover"",""data"":{""x"":798,""y"":312,""timestamp"":215795.20000004768},""timestamp"":215795.20000004768},{""type"":""chart_hover"",""data"":{""x"":797,""y"":311,""timestamp"":215804.30000001192},""timestamp"":215804.30000001192},{""type"":""chart_hover"",""data"":{""x"":795,""y"":311,""timestamp"":215812.70000004768},""timestamp"":215812.70000004768},{""type"":""chart_hover"",""data"":{""x"":793,""y"":311,""timestamp"":215821.10000002384},""timestamp"":215821.10000002384},{""type"":""chart_hover"",""data"":{""x"":791,""y"":310,""timestamp"":215829.20000004768},""timestamp"":215829.20000004768},{""type"":""chart_hover"",""data"":{""x"":791,""y"":309,""timestamp"":215838.20000004768},""timestamp"":215838.20000004768},{""type"":""chart_hover"",""data"":{""x"":790,""y"":309,""timestamp"":215845.5},""timestamp"":215845.5},{""type"":""chart_hover"",""data"":{""x"":789,""y"":309,""timestamp"":215854.30000001192},""timestamp"":215854.30000001192},{""type"":""chart_hover"",""data"":{""x"":789,""y"":310,""timestamp"":215891.70000004768},""timestamp"":215891.70000004768},{""type"":""chart_hover"",""data"":{""x"":789,""y"":311,""timestamp"":215895.70000004768},""timestamp"":215895.70000004768},{""type"":""chart_hover"",""data"":{""x"":789,""y"":312,""timestamp"":215904.30000001192},""timestamp"":215904.30000001192},{""type"":""chart_hover"",""data"":{""x"":790,""y"":314,""timestamp"":215912.60000002384},""timestamp"":215912.60000002384},{""type"":""chart_hover"",""data"":{""x"":791,""y"":316,""timestamp"":215921.10000002384},""timestamp"":215921.10000002384},{""type"":""chart_hover"",""data"":{""x"":791,""y"":318,""timestamp"":215929.20000004768},""timestamp"":215929.20000004768},{""type"":""chart_hover"",""data"":{""x"":792,""y"":318,""timestamp"":215937.70000004768},""timestamp"":215937.70000004768},{""type"":""chart_hover"",""data"":{""x"":794,""y"":320,""timestamp"":215945.90000003576},""timestamp"":215946},{""type"":""chart_hover"",""data"":{""x"":796,""y"":322,""timestamp"":215954.40000003576},""timestamp"":215954.40000003576},{""type"":""chart_hover"",""data"":{""x"":799,""y"":324,""timestamp"":215963.10000002384},""timestamp"":215963.20000004768},{""type"":""chart_hover"",""data"":{""x"":803,""y"":325,""timestamp"":215970.90000003576},""timestamp"":215970.90000003576},{""type"":""chart_hover"",""data"":{""x"":808,""y"":327,""timestamp"":215979.30000001192},""timestamp"":215979.30000001192},{""type"":""chart_hover"",""data"":{""x"":813,""y"":328,""timestamp"":215987.60000002384},""timestamp"":215987.60000002384},{""type"":""chart_hover"",""data"":{""x"":818,""y"":329,""timestamp"":215995.90000003576},""timestamp"":215995.90000003576},{""type"":""chart_hover"",""data"":{""x"":823,""y"":329,""timestamp"":216004.20000004768},""timestamp"":216004.20000004768},{""type"":""chart_hover"",""data"":{""x"":827,""y"":330,""timestamp"":216012.70000004768},""timestamp"":216012.70000004768},{""type"":""chart_hover"",""data"":{""x"":831,""y"":330,""timestamp"":216021},""timestamp"":216021},{""type"":""chart_hover"",""data"":{""x"":833,""y"":330,""timestamp"":216029.20000004768},""timestamp"":216029.20000004768},{""type"":""chart_hover"",""data"":{""x"":833,""y"":330,""timestamp"":216037.5},""timestamp"":216037.5},{""type"":""chart_hover"",""data"":{""x"":833,""y"":330,""timestamp"":216085},""timestamp"":216085},{""type"":""chart_hover"",""data"":{""x"":832,""y"":330,""timestamp"":216088.90000003576},""timestamp"":216088.90000003576},{""type"":""chart_hover"",""data"":{""x"":831,""y"":330,""timestamp"":216096.40000003576},""timestamp"":216096.40000003576},{""type"":""chart_hover"",""data"":{""x"":829,""y"":330,""timestamp"":216104.20000004768},""timestamp"":216104.20000004768},{""type"":""chart_hover"",""data"":{""x"":828,""y"":330,""timestamp"":216113.10000002384},""timestamp"":216113.10000002384},{""type"":""chart_hover"",""data"":{""x"":827,""y"":330,""timestamp"":216121},""timestamp"":216121},{""type"":""chart_leave"",""data"":{""timestamp"":216703.90000003576},""timestamp"":216703.90000003576},{""type"":""chart_enter"",""data"":{""timestamp"":217357.30000001192},""timestamp"":217357.30000001192},{""type"":""chart_hover"",""data"":{""x"":917,""y"":493,""timestamp"":217357.30000001192},""timestamp"":217357.30000001192},{""type"":""chart_hover"",""data"":{""x"":917,""y"":492,""timestamp"":217365.60000002384},""timestamp"":217365.60000002384},{""type"":""chart_hover"",""data"":{""x"":916,""y"":490,""timestamp"":217374},""timestamp"":217374},{""type"":""chart_hover"",""data"":{""x"":914,""y"":488,""timestamp"":217381.60000002384},""timestamp"":217381.60000002384},{""type"":""chart_hover"",""data"":{""x"":912,""y"":486,""timestamp"":217390.70000004768},""timestamp"":217390.70000004768},{""type"":""chart_hover"",""data"":{""x"":910,""y"":482,""timestamp"":217398.90000003576},""timestamp"":217398.90000003576},{""type"":""chart_hover"",""data"":{""x"":909,""y"":479,""timestamp"":217407.10000002384},""timestamp"":217407.10000002384},{""type"":""chart_hover"",""data"":{""x"":907,""y"":476,""timestamp"":217415.70000004768},""timestamp"":217415.70000004768},{""type"":""chart_hover"",""data"":{""x"":904,""y"":472,""timestamp"":217424},""timestamp"":217424},{""type"":""chart_hover"",""data"":{""x"":902,""y"":468,""timestamp"":217432.40000003576},""timestamp"":217432.40000003576},{""type"":""chart_hover"",""data"":{""x"":898,""y"":463,""timestamp"":217440.70000004768},""timestamp"":217440.70000004768},{""type"":""chart_hover"",""data"":{""x"":896,""y"":459,""timestamp"":217448.30000001192},""timestamp"":217448.30000001192},{""type"":""chart_hover"",""data"":{""x"":893,""y"":453,""timestamp"":217456.70000004768},""timestamp"":217456.70000004768},{""type"":""chart_hover"",""data"":{""x"":889,""y"":448,""timestamp"":217465.5},""timestamp"":217465.5},{""type"":""chart_hover"",""data"":{""x"":887,""y"":443,""timestamp"":217474},""timestamp"":217474},{""type"":""chart_hover"",""data"":{""x"":885,""y"":438,""timestamp"":217482.30000001192},""timestamp"":217482.40000003576},{""type"":""chart_hover"",""data"":{""x"":882,""y"":431,""timestamp"":217490.60000002384},""timestamp"":217490.60000002384},{""type"":""chart_hover"",""data"":{""x"":881,""y"":425,""timestamp"":217499},""timestamp"":217499},{""type"":""chart_hover"",""data"":{""x"":879,""y"":418,""timestamp"":217507.40000003576},""timestamp"":217507.40000003576},{""type"":""chart_hover"",""data"":{""x"":877,""y"":411,""timestamp"":217515.60000002384},""timestamp"":217515.60000002384},{""type"":""chart_hover"",""data"":{""x"":876,""y"":405,""timestamp"":217523.80000001192},""timestamp"":217523.80000001192},{""type"":""chart_hover"",""data"":{""x"":875,""y"":398,""timestamp"":217532.30000001192},""timestamp"":217532.30000001192},{""type"":""chart_hover"",""data"":{""x"":874,""y"":392,""timestamp"":217540.70000004768},""timestamp"":217540.70000004768},{""type"":""chart_hover"",""data"":{""x"":873,""y"":385,""timestamp"":217548.70000004768},""timestamp"":217548.70000004768},{""type"":""chart_hover"",""data"":{""x"":872,""y"":379,""timestamp"":217557.30000001192},""timestamp"":217557.30000001192},{""type"":""chart_hover"",""data"":{""x"":870,""y"":373,""timestamp"":217565.60000002384},""timestamp"":217565.60000002384},{""type"":""chart_hover"",""data"":{""x"":868,""y"":367,""timestamp"":217574},""timestamp"":217574},{""type"":""chart_hover"",""data"":{""x"":866,""y"":361,""timestamp"":217582.30000001192},""timestamp"":217582.30000001192},{""type"":""chart_hover"",""data"":{""x"":862,""y"":355,""timestamp"":217590.30000001192},""timestamp"":217590.30000001192},{""type"":""chart_hover"",""data"":{""x"":859,""y"":350,""timestamp"":217598.90000003576},""timestamp"":217598.90000003576},{""type"":""chart_hover"",""data"":{""x"":856,""y"":346,""timestamp"":217607.30000001192},""timestamp"":217607.30000001192},{""type"":""chart_hover"",""data"":{""x"":854,""y"":341,""timestamp"":217615.40000003576},""timestamp"":217615.40000003576},{""type"":""chart_hover"",""data"":{""x"":851,""y"":337,""timestamp"":217624},""timestamp"":217624},{""type"":""chart_hover"",""data"":{""x"":848,""y"":332,""timestamp"":217632.30000001192},""timestamp"":217632.30000001192},{""type"":""chart_hover"",""data"":{""x"":846,""y"":329,""timestamp"":217640.60000002384},""timestamp"":217640.60000002384},{""type"":""chart_hover"",""data"":{""x"":841,""y"":325,""timestamp"":217649},""timestamp"":217649},{""type"":""chart_hover"",""data"":{""x"":837,""y"":321,""timestamp"":217657.30000001192},""timestamp"":217657.30000001192},{""type"":""chart_hover"",""data"":{""x"":833,""y"":317,""timestamp"":217664.80000001192},""timestamp"":217664.80000001192},{""type"":""chart_hover"",""data"":{""x"":825,""y"":313,""timestamp"":217674},""timestamp"":217674},{""type"":""chart_hover"",""data"":{""x"":819,""y"":310,""timestamp"":217682.10000002384},""timestamp"":217682.10000002384},{""type"":""chart_hover"",""data"":{""x"":805,""y"":304,""timestamp"":217696.20000004768},""timestamp"":217696.20000004768},{""type"":""chart_hover"",""data"":{""x"":798,""y"":300,""timestamp"":217703.90000003576},""timestamp"":217703.90000003576},{""type"":""chart_hover"",""data"":{""x"":791,""y"":298,""timestamp"":217712.70000004768},""timestamp"":217712.70000004768},{""type"":""chart_hover"",""data"":{""x"":788,""y"":297,""timestamp"":217721.20000004768},""timestamp"":217721.20000004768},{""type"":""chart_hover"",""data"":{""x"":787,""y"":296,""timestamp"":217729.20000004768},""timestamp"":217729.20000004768},{""type"":""chart_hover"",""data"":{""x"":786,""y"":296,""timestamp"":217737.40000003576},""timestamp"":217737.40000003576},{""type"":""chart_hover"",""data"":{""x"":785,""y"":296,""timestamp"":217770.80000001192},""timestamp"":217770.80000001192},{""type"":""chart_hover"",""data"":{""x"":784,""y"":296,""timestamp"":217779.40000003576},""timestamp"":217779.40000003576},{""type"":""chart_hover"",""data"":{""x"":784,""y"":298,""timestamp"":217787.5},""timestamp"":217787.5},{""type"":""chart_hover"",""data"":{""x"":783,""y"":302,""timestamp"":217796.10000002384},""timestamp"":217796.10000002384},{""type"":""chart_hover"",""data"":{""x"":783,""y"":304,""timestamp"":217804.20000004768},""timestamp"":217804.20000004768},{""type"":""chart_hover"",""data"":{""x"":783,""y"":308,""timestamp"":217812.5},""timestamp"":217812.5},{""type"":""chart_hover"",""data"":{""x"":784,""y"":312,""timestamp"":217820.80000001192},""timestamp"":217820.80000001192},{""type"":""chart_hover"",""data"":{""x"":784,""y"":315,""timestamp"":217829.20000004768},""timestamp"":217829.20000004768},{""type"":""chart_hover"",""data"":{""x"":786,""y"":318,""timestamp"":217837.5},""timestamp"":217837.5},{""type"":""chart_hover"",""data"":{""x"":787,""y"":319,""timestamp"":217845.90000003576},""timestamp"":217845.90000003576},{""type"":""chart_hover"",""data"":{""x"":788,""y"":320,""timestamp"":217854.20000004768},""timestamp"":217854.20000004768},{""type"":""chart_hover"",""data"":{""x"":790,""y"":320,""timestamp"":217862.5},""timestamp"":217862.5},{""type"":""chart_hover"",""data"":{""x"":791,""y"":321,""timestamp"":217870.90000003576},""timestamp"":217870.90000003576},{""type"":""chart_hover"",""data"":{""x"":792,""y"":318,""timestamp"":217904.30000001192},""timestamp"":217904.30000001192},{""type"":""chart_hover"",""data"":{""x"":793,""y"":316,""timestamp"":217913.10000002384},""timestamp"":217913.10000002384},{""type"":""chart_hover"",""data"":{""x"":793,""y"":313,""timestamp"":217921},""timestamp"":217921},{""type"":""chart_hover"",""data"":{""x"":793,""y"":310,""timestamp"":217929.60000002384},""timestamp"":217929.60000002384},{""type"":""chart_hover"",""data"":{""x"":793,""y"":305,""timestamp"":217938.20000004768},""timestamp"":217938.20000004768},{""type"":""chart_hover"",""data"":{""x"":793,""y"":301,""timestamp"":217945.90000003576},""timestamp"":217945.90000003576},{""type"":""chart_hover"",""data"":{""x"":793,""y"":296,""timestamp"":217954.20000004768},""timestamp"":217954.20000004768},{""type"":""chart_hover"",""data"":{""x"":792,""y"":290,""timestamp"":217962.5},""timestamp"":217962.5},{""type"":""chart_hover"",""data"":{""x"":791,""y"":285,""timestamp"":217970.90000003576},""timestamp"":217970.90000003576},{""type"":""chart_hover"",""data"":{""x"":790,""y"":279,""timestamp"":217979.30000001192},""timestamp"":217979.30000001192},{""type"":""chart_hover"",""data"":{""x"":788,""y"":273,""timestamp"":217987.60000002384},""timestamp"":217987.60000002384},{""type"":""chart_hover"",""data"":{""x"":787,""y"":267,""timestamp"":217995.80000001192},""timestamp"":217995.80000001192},{""type"":""chart_hover"",""data"":{""x"":784,""y"":261,""timestamp"":218004.20000004768},""timestamp"":218004.20000004768},{""type"":""chart_hover"",""data"":{""x"":783,""y"":255,""timestamp"":218012.60000002384},""timestamp"":218012.60000002384},{""type"":""chart_hover"",""data"":{""x"":781,""y"":248,""timestamp"":218020.80000001192},""timestamp"":218020.80000001192},{""type"":""chart_hover"",""data"":{""x"":778,""y"":243,""timestamp"":218029.20000004768},""timestamp"":218029.20000004768},{""type"":""chart_hover"",""data"":{""x"":776,""y"":238,""timestamp"":218038.10000002384},""timestamp"":218038.10000002384},{""type"":""chart_hover"",""data"":{""x"":774,""y"":233,""timestamp"":218045.90000003576},""timestamp"":218045.90000003576},{""type"":""chart_hover"",""data"":{""x"":771,""y"":227,""timestamp"":218054.10000002384},""timestamp"":218054.10000002384},{""type"":""chart_hover"",""data"":{""x"":770,""y"":223,""timestamp"":218062.5},""timestamp"":218062.5},{""type"":""chart_hover"",""data"":{""x"":769,""y"":220,""timestamp"":218070.80000001192},""timestamp"":218070.80000001192},{""type"":""chart_hover"",""data"":{""x"":768,""y"":217,""timestamp"":218079.20000004768},""timestamp"":218079.20000004768},{""type"":""chart_hover"",""data"":{""x"":768,""y"":215,""timestamp"":218087.60000002384},""timestamp"":218087.60000002384},{""type"":""chart_hover"",""data"":{""x"":768,""y"":214,""timestamp"":218096.30000001192},""timestamp"":218096.30000001192},{""type"":""chart_hover"",""data"":{""x"":768,""y"":215,""timestamp"":218141},""timestamp"":218141},{""type"":""chart_hover"",""data"":{""x"":768,""y"":218,""timestamp"":218145.80000001192},""timestamp"":218145.80000001192},{""type"":""chart_hover"",""data"":{""x"":768,""y"":223,""timestamp"":218154.20000004768},""timestamp"":218154.20000004768},{""type"":""chart_hover"",""data"":{""x"":769,""y"":228,""timestamp"":218162.5},""timestamp"":218162.5},{""type"":""chart_hover"",""data"":{""x"":770,""y"":236,""timestamp"":218170.90000003576},""timestamp"":218170.90000003576},{""type"":""chart_hover"",""data"":{""x"":771,""y"":246,""timestamp"":218179.30000001192},""timestamp"":218179.30000001192},{""type"":""chart_hover"",""data"":{""x"":773,""y"":256,""timestamp"":218187.5},""timestamp"":218187.5},{""type"":""chart_hover"",""data"":{""x"":776,""y"":268,""timestamp"":218195.90000003576},""timestamp"":218195.90000003576},{""type"":""chart_hover"",""data"":{""x"":777,""y"":280,""timestamp"":218204.10000002384},""timestamp"":218204.10000002384},{""type"":""chart_hover"",""data"":{""x"":778,""y"":295,""timestamp"":218213.10000002384},""timestamp"":218213.10000002384},{""type"":""chart_hover"",""data"":{""x"":779,""y"":308,""timestamp"":218221},""timestamp"":218221},{""type"":""chart_hover"",""data"":{""x"":780,""y"":320,""timestamp"":218229.30000001192},""timestamp"":218229.30000001192},{""type"":""chart_hover"",""data"":{""x"":782,""y"":333,""timestamp"":218237.60000002384},""timestamp"":218237.60000002384},{""type"":""chart_hover"",""data"":{""x"":784,""y"":347,""timestamp"":218245.90000003576},""timestamp"":218245.90000003576},{""type"":""chart_hover"",""data"":{""x"":786,""y"":359,""timestamp"":218254.20000004768},""timestamp"":218254.20000004768},{""type"":""chart_hover"",""data"":{""x"":788,""y"":371,""timestamp"":218262.70000004768},""timestamp"":218262.70000004768},{""type"":""chart_hover"",""data"":{""x"":790,""y"":382,""timestamp"":218270.80000001192},""timestamp"":218270.80000001192},{""type"":""chart_hover"",""data"":{""x"":791,""y"":392,""timestamp"":218279.30000001192},""timestamp"":218279.30000001192},{""type"":""chart_hover"",""data"":{""x"":793,""y"":399,""timestamp"":218287.60000002384},""timestamp"":218287.60000002384},{""type"":""chart_hover"",""data"":{""x"":795,""y"":405,""timestamp"":218296.10000002384},""timestamp"":218296.10000002384},{""type"":""chart_hover"",""data"":{""x"":796,""y"":409,""timestamp"":218304.10000002384},""timestamp"":218304.10000002384},{""type"":""chart_hover"",""data"":{""x"":798,""y"":413,""timestamp"":218312.60000002384},""timestamp"":218312.60000002384},{""type"":""chart_hover"",""data"":{""x"":800,""y"":415,""timestamp"":218320.80000001192},""timestamp"":218320.80000001192},{""type"":""chart_hover"",""data"":{""x"":801,""y"":416,""timestamp"":218329.70000004768},""timestamp"":218329.70000004768},{""type"":""chart_hover"",""data"":{""x"":802,""y"":416,""timestamp"":218339.20000004768},""timestamp"":218339.20000004768},{""type"":""chart_hover"",""data"":{""x"":802,""y"":415,""timestamp"":218345.90000003576},""timestamp"":218345.90000003576},{""type"":""chart_hover"",""data"":{""x"":804,""y"":411,""timestamp"":218354.20000004768},""timestamp"":218354.20000004768},{""type"":""chart_hover"",""data"":{""x"":804,""y"":408,""timestamp"":218363},""timestamp"":218363},{""type"":""chart_hover"",""data"":{""x"":805,""y"":402,""timestamp"":218370.90000003576},""timestamp"":218370.90000003576},{""type"":""chart_hover"",""data"":{""x"":805,""y"":395,""timestamp"":218379.40000003576},""timestamp"":218379.40000003576},{""type"":""chart_hover"",""data"":{""x"":805,""y"":386,""timestamp"":218387.60000002384},""timestamp"":218387.60000002384},{""type"":""chart_hover"",""data"":{""x"":805,""y"":376,""timestamp"":218395.90000003576},""timestamp"":218395.90000003576},{""type"":""chart_hover"",""data"":{""x"":806,""y"":366,""timestamp"":218404.20000004768},""timestamp"":218404.20000004768},{""type"":""chart_hover"",""data"":{""x"":807,""y"":353,""timestamp"":218412.70000004768},""timestamp"":218412.70000004768},{""type"":""chart_hover"",""data"":{""x"":807,""y"":343,""timestamp"":218421},""timestamp"":218421},{""type"":""chart_hover"",""data"":{""x"":807,""y"":332,""timestamp"":218429.20000004768},""timestamp"":218429.20000004768},{""type"":""chart_hover"",""data"":{""x"":807,""y"":322,""timestamp"":218437.5},""timestamp"":218437.5},{""type"":""chart_hover"",""data"":{""x"":807,""y"":313,""timestamp"":218445.90000003576},""timestamp"":218445.90000003576},{""type"":""chart_hover"",""data"":{""x"":806,""y"":305,""timestamp"":218454.20000004768},""timestamp"":218454.20000004768},{""type"":""chart_hover"",""data"":{""x"":805,""y"":299,""timestamp"":218462.5},""timestamp"":218462.5},{""type"":""chart_hover"",""data"":{""x"":803,""y"":296,""timestamp"":218470.80000001192},""timestamp"":218470.80000001192},{""type"":""chart_hover"",""data"":{""x"":803,""y"":293,""timestamp"":218479.20000004768},""timestamp"":218479.20000004768},{""type"":""chart_hover"",""data"":{""x"":803,""y"":294,""timestamp"":218512.20000004768},""timestamp"":218512.20000004768},{""type"":""chart_hover"",""data"":{""x"":803,""y"":295,""timestamp"":218513},""timestamp"":218513},{""type"":""chart_hover"",""data"":{""x"":802,""y"":299,""timestamp"":218520.80000001192},""timestamp"":218520.80000001192},{""type"":""chart_hover"",""data"":{""x"":802,""y"":306,""timestamp"":218529.20000004768},""timestamp"":218529.20000004768},{""type"":""chart_hover"",""data"":{""x"":802,""y"":315,""timestamp"":218537.60000002384},""timestamp"":218537.60000002384},{""type"":""chart_hover"",""data"":{""x"":800,""y"":326,""timestamp"":218545.90000003576},""timestamp"":218545.90000003576},{""type"":""chart_hover"",""data"":{""x"":798,""y"":339,""timestamp"":218554.30000001192},""timestamp"":218554.30000001192},{""type"":""chart_hover"",""data"":{""x"":796,""y"":353,""timestamp"":218562.5},""timestamp"":218562.5},{""type"":""chart_hover"",""data"":{""x"":792,""y"":369,""timestamp"":218570.90000003576},""timestamp"":218570.90000003576},{""type"":""chart_hover"",""data"":{""x"":790,""y"":385,""timestamp"":218579.30000001192},""timestamp"":218579.30000001192},{""type"":""chart_hover"",""data"":{""x"":785,""y"":401,""timestamp"":218587.5},""timestamp"":218587.5},{""type"":""chart_hover"",""data"":{""x"":781,""y"":417,""timestamp"":218595.90000003576},""timestamp"":218595.90000003576},{""type"":""chart_hover"",""data"":{""x"":777,""y"":431,""timestamp"":218604.20000004768},""timestamp"":218604.20000004768},{""type"":""chart_hover"",""data"":{""x"":775,""y"":446,""timestamp"":218612.60000002384},""timestamp"":218612.60000002384},{""type"":""chart_hover"",""data"":{""x"":772,""y"":460,""timestamp"":218620.90000003576},""timestamp"":218620.90000003576},{""type"":""chart_hover"",""data"":{""x"":770,""y"":474,""timestamp"":218629.40000003576},""timestamp"":218629.40000003576},{""type"":""chart_hover"",""data"":{""x"":770,""y"":485,""timestamp"":218637.70000004768},""timestamp"":218637.70000004768},{""type"":""chart_hover"",""data"":{""x"":770,""y"":496,""timestamp"":218645.90000003576},""timestamp"":218645.90000003576},{""type"":""chart_hover"",""data"":{""x"":770,""y"":505,""timestamp"":218654.30000001192},""timestamp"":218654.30000001192},{""type"":""chart_hover"",""data"":{""x"":772,""y"":514,""timestamp"":218662.5},""timestamp"":218662.5},{""type"":""chart_hover"",""data"":{""x"":775,""y"":523,""timestamp"":218670.80000001192},""timestamp"":218670.80000001192},{""type"":""chart_hover"",""data"":{""x"":779,""y"":531,""timestamp"":218679.20000004768},""timestamp"":218679.20000004768},{""type"":""chart_hover"",""data"":{""x"":784,""y"":537,""timestamp"":218687.60000002384},""timestamp"":218687.60000002384},{""type"":""chart_hover"",""data"":{""x"":789,""y"":542,""timestamp"":218695.90000003576},""timestamp"":218695.90000003576},{""type"":""chart_hover"",""data"":{""x"":793,""y"":546,""timestamp"":218704.10000002384},""timestamp"":218704.10000002384},{""type"":""chart_hover"",""data"":{""x"":798,""y"":549,""timestamp"":218712.90000003576},""timestamp"":218712.90000003576},{""type"":""chart_hover"",""data"":{""x"":804,""y"":550,""timestamp"":218720.90000003576},""timestamp"":218720.90000003576},{""type"":""chart_hover"",""data"":{""x"":807,""y"":551,""timestamp"":218729.20000004768},""timestamp"":218729.20000004768},{""type"":""chart_hover"",""data"":{""x"":821,""y"":552,""timestamp"":218753.60000002384},""timestamp"":218753.60000002384},{""type"":""chart_hover"",""data"":{""x"":824,""y"":552,""timestamp"":218762.40000003576},""timestamp"":218762.40000003576},{""type"":""chart_hover"",""data"":{""x"":824,""y"":553,""timestamp"":218793.80000001192},""timestamp"":218793.80000001192},{""type"":""chart_hover"",""data"":{""x"":824,""y"":554,""timestamp"":218796.80000001192},""timestamp"":218796.80000001192},{""type"":""chart_hover"",""data"":{""x"":824,""y"":555,""timestamp"":218804.20000004768},""timestamp"":218804.20000004768},{""type"":""chart_leave"",""data"":{""timestamp"":218954.30000001192},""timestamp"":218954.30000001192},{""type"":""chart_enter"",""data"":{""timestamp"":222029.60000002384},""timestamp"":222029.60000002384},{""type"":""chart_hover"",""data"":{""x"":905,""y"":458,""timestamp"":222029.60000002384},""timestamp"":222029.60000002384},{""type"":""chart_hover"",""data"":{""x"":907,""y"":456,""timestamp"":222032.10000002384},""timestamp"":222032.10000002384},{""type"":""chart_hover"",""data"":{""x"":910,""y"":449,""timestamp"":222040.60000002384},""timestamp"":222040.60000002384},{""type"":""chart_hover"",""data"":{""x"":912,""y"":442,""timestamp"":222049},""timestamp"":222049},{""type"":""chart_hover"",""data"":{""x"":916,""y"":433,""timestamp"":222057.10000002384},""timestamp"":222057.10000002384},{""type"":""chart_hover"",""data"":{""x"":918,""y"":423,""timestamp"":222065.70000004768},""timestamp"":222065.70000004768},{""type"":""chart_hover"",""data"":{""x"":922,""y"":412,""timestamp"":222074.10000002384},""timestamp"":222074.10000002384},{""type"":""chart_hover"",""data"":{""x"":928,""y"":390,""timestamp"":222090.70000004768},""timestamp"":222090.70000004768},{""type"":""chart_hover"",""data"":{""x"":931,""y"":380,""timestamp"":222097.90000003576},""timestamp"":222097.90000003576},{""type"":""chart_hover"",""data"":{""x"":934,""y"":364,""timestamp"":222107.5},""timestamp"":222107.5},{""type"":""chart_hover"",""data"":{""x"":938,""y"":352,""timestamp"":222115.40000003576},""timestamp"":222115.40000003576},{""type"":""chart_hover"",""data"":{""x"":941,""y"":339,""timestamp"":222124.10000002384},""timestamp"":222124.10000002384},{""type"":""chart_hover"",""data"":{""x"":943,""y"":329,""timestamp"":222131.20000004768},""timestamp"":222131.20000004768},{""type"":""chart_hover"",""data"":{""x"":947,""y"":315,""timestamp"":222139.60000002384},""timestamp"":222139.60000002384},{""type"":""chart_hover"",""data"":{""x"":951,""y"":300,""timestamp"":222148.20000004768},""timestamp"":222148.20000004768},{""type"":""chart_hover"",""data"":{""x"":956,""y"":283,""timestamp"":222157.10000002384},""timestamp"":222157.10000002384},{""type"":""chart_hover"",""data"":{""x"":962,""y"":270,""timestamp"":222165.40000003576},""timestamp"":222165.40000003576},{""type"":""chart_hover"",""data"":{""x"":967,""y"":256,""timestamp"":222174},""timestamp"":222174},{""type"":""chart_hover"",""data"":{""x"":972,""y"":247,""timestamp"":222181.70000004768},""timestamp"":222181.70000004768},{""type"":""chart_hover"",""data"":{""x"":977,""y"":235,""timestamp"":222190.5},""timestamp"":222190.5},{""type"":""chart_hover"",""data"":{""x"":981,""y"":225,""timestamp"":222199.10000002384},""timestamp"":222199.10000002384},{""type"":""chart_hover"",""data"":{""x"":986,""y"":219,""timestamp"":222206.10000002384},""timestamp"":222206.10000002384},{""type"":""chart_hover"",""data"":{""x"":990,""y"":213,""timestamp"":222215.5},""timestamp"":222215.5},{""type"":""chart_hover"",""data"":{""x"":994,""y"":210,""timestamp"":222224.10000002384},""timestamp"":222224.10000002384},{""type"":""chart_hover"",""data"":{""x"":996,""y"":208,""timestamp"":222232.40000003576},""timestamp"":222232.40000003576},{""type"":""chart_hover"",""data"":{""x"":1001,""y"":207,""timestamp"":222240.80000001192},""timestamp"":222240.80000001192},{""type"":""chart_hover"",""data"":{""x"":1004,""y"":207,""timestamp"":222249},""timestamp"":222249},{""type"":""chart_hover"",""data"":{""x"":1006,""y"":207,""timestamp"":222257.30000001192},""timestamp"":222257.30000001192},{""type"":""chart_hover"",""data"":{""x"":1008,""y"":208,""timestamp"":222264.90000003576},""timestamp"":222264.90000003576},{""type"":""chart_hover"",""data"":{""x"":1008,""y"":212,""timestamp"":222274.20000004768},""timestamp"":222274.20000004768},{""type"":""chart_hover"",""data"":{""x"":1007,""y"":216,""timestamp"":222281.20000004768},""timestamp"":222281.30000001192},{""type"":""chart_hover"",""data"":{""x"":1006,""y"":218,""timestamp"":222290.80000001192},""timestamp"":222290.80000001192},{""type"":""chart_hover"",""data"":{""x"":1006,""y"":221,""timestamp"":222585},""timestamp"":222585},{""type"":""chart_hover"",""data"":{""x"":1011,""y"":280,""timestamp"":222595.30000001192},""timestamp"":222595.30000001192},{""type"":""chart_hover"",""data"":{""x"":1009,""y"":325,""timestamp"":222604.20000004768},""timestamp"":222604.20000004768},{""type"":""chart_hover"",""data"":{""x"":1004,""y"":374,""timestamp"":222612.70000004768},""timestamp"":222612.70000004768},{""type"":""chart_hover"",""data"":{""x"":999,""y"":415,""timestamp"":222621},""timestamp"":222621},{""type"":""chart_hover"",""data"":{""x"":993,""y"":452,""timestamp"":222629.5},""timestamp"":222629.5},{""type"":""chart_leave"",""data"":{""timest